timestamp,angular_velocity_x,angular_velocity_y,angular_velocity_z,linear_acceleration_x,linear_acceleration_y,linear_acceleration_z,orientation_x,orientation_y,orientation_z,orientation_w,roll_deg,pitch_deg
88.579,0.027192316305292803,0.019601307459587193,-0.026639119872938172,0.05087804743486926,0.004814570007934274,9.799855618598386,0.00010451890364274504,-0.002603705100438736,-0.05487765515270434,0.9984896858558377,-6.291771594745279,-0.29725607011073135
88.679,0.027193762207017094,0.01959460284862695,-0.026623324362491874,0.05084742455541329,0.004892410962154897,9.799855805707342,0.0001060589934615175,-0.002602479250406379,-0.05583896133430794,0.9984363906881334,-6.40209984414852,-0.2970785459328909
88.779,0.02719517277961925,0.019587867149432506,-0.026607562885186654,0.050816659661818045,0.004970954619720534,9.799855880784067,0.00010764328610255754,-0.0026012459030811223,-0.056799478993659426,0.9983822119402588,-6.51234353904358,-0.29689929830467293
88.879,0.00608359244882988,0.002013257900497564,-0.00014859889149709474,0.048762023805355166,-0.017551986368859226,9.804117504671144,0.00010054232539265016,-0.0026087478278475763,-0.057150784138438326,0.9983621448143821,-6.552664419515821,-0.2977937488052843
88.979,0.04585302976941057,0.02173081895546964,-0.023193275658153226,0.05883473341418896,-0.0018558964698426259,9.7822050440032,0.00011506665433038081,-0.0026029339048838102,-0.05740135005316433,0.9983477833434731,-6.581428590260396,-0.29702589581770433
89.079,0.012471872730258455,0.01030765681300281,-0.004639984285984515,0.05491472341840328,0.022737071678427246,9.831590755688003,9.837231825641683e-05,-0.0026079808689944426,-0.05766741996234728,0.9983324383358282,-6.611964234110523,-0.2977055142141493
89.179,0.003840919354643009,0.0025041475323663185,0.00019112752591190748,0.03983663621842679,-0.004317659701945014,9.7768602536486,9.941690391980134e-05,-0.0026096096182428846,-0.05786790496362242,0.9983208330136365,-6.634977197183798,-0.29787918897025006
89.279,0.03631066041558141,0.017567659796339095,-0.019503655074568426,0.05544730214433408,0.004239356985839626,9.775902880138926,0.00011373137367888297,-0.00260395860467609,-0.05807758609141171,0.9983086699305754,-6.659049481248562,-0.29713142399750614
89.379,0.008224966351378035,0.002998535111959013,-0.0002618545298980783,0.04632785553327083,0.003668050190308453,9.832846223322532,9.846472275080714e-05,-0.0026090052466199217,-0.058307728330457886,0.9982952430084314,-6.685462678611041,-0.29780374916534524
89.479,-0.0071370279361457345,-0.002608737864132148,0.0011751453544793125,0.04483516264623306,0.01784630634922605,9.832867618836994,9.898582770949363e-05,-0.0026092275872757606,-0.058546755149189826,0.9982812527513,-6.712900452486185,-0.2978188082053967
89.579,0.00685023718133256,0.0019075069867490874,-0.0002545462820062842,0.05589550432994055,-0.007927049908671059,9.76931070050912,9.812280613232378e-05,-0.0026098114046588313,-0.058785769931598786,0.9982672049656326,-6.740336843053114,-0.29788449597566385
89.679,0.04545981984972458,0.021689173282195103,-0.023017665125756457,0.05905570826875996,-0.001212557883857322,9.778918867756733,0.0001126814790490584,-0.0026039927275189768,-0.05903608251291833,0.9982524467720014,-6.769074677083535,-0.29711316140807614
89.779,0.019119174844097277,0.01866502582703725,-0.02252575822405814,0.04525711550674121,0.03467852674544536,9.817830917821656,0.00010261176451512047,-0.002606400939644627,-0.05929223420901712,0.9982372599274536,-6.7984764833042055,-0.2974492186228226
89.879,0.010495870101022098,0.008607750874637552,-0.002790751045057941,0.05866584564105143,-0.009539778204458931,9.807971714050213,9.689929307580064e-05,-0.002608734856465235,-0.059537545469998156,0.9982226534157514,-6.826635576020835,-0.29774792078245743
89.979,-0.010976156368430539,-0.0062063354175990884,0.0006192570920007261,0.031546841064690224,0.018368163760851642,9.821116873395885,9.709782109459667e-05,-0.0026081119703900506,-0.0597775035914154,0.9982083141250333,-6.854182110782569,-0.29766835916164264
90.079,0.011111526344807015,0.003824425766445065,-0.0003141731544769848,0.062082560307563525,-0.019945361105188707,9.778677349797768,9.425860505566995e-05,-0.002610346376783104,-0.06001721738725508,0.9981939244576675,-6.88170027849739,-0.2979365032710488
90.179,0.026639239924461006,0.020210242326402596,-0.025882080062897023,0.05014582883569178,0.03265110110966866,9.80311770380003,0.00010144393671658026,-0.0026069830220384962,-0.060247331409819485,0.998180070130959,-6.908119382593724,-0.2974955506548633
90.279,-0.0038001103692581395,-0.0032476928597074063,0.000381656287883489,0.04357764494208281,-0.009929203758198758,9.830964870597132,9.530779325958982e-05,-0.002610132407731623,-0.06045560935876564,0.9981674696273661,-6.93202849225869,-0.29789211164909596
90.379,0.029522243234796016,0.023304038168212027,-0.026789879394724624,0.06446285179844424,0.014438366161370867,9.744314780912125,0.00010611719421918387,-0.0026056201282789178,-0.06070490283031176,0.9981523502227757,-6.960651175886597,-0.29729355184325895
90.479,0.02009774302478611,0.02125904672839045,-0.02900737543559208,0.04397648567598069,0.026599514815200318,9.802689435514923,9.970421615140272e-05,-0.002604669156551597,-0.06098436100020873,0.9981353182164482,-6.99273252965658,-0.2972211128051335
90.579,0.020976762886705566,0.02062336752300064,-0.03128651376607258,0.04841930264820137,0.007449254159681825,9.807917517864695,9.430829364458034e-05,-0.0026042005475617534,-0.06217332878831834,0.9980619652270262,-7.1292370149550095,-0.29717048285563635
90.679,0.02360410197821468,0.020152267981494845,-0.03245979816977195,0.05110104037560034,0.005203603125198182,9.803656371575087,9.064200956146305e-05,-0.002605089892232658,-0.06338771137866628,0.9979855727097734,-7.268670449905689,-0.29726290021161056
90.779,0.024677194882236932,0.021604781882884273,-0.03214080780548881,0.050790904081503635,0.002079777787687274,9.797726059857334,8.942156061943303e-05,-0.002604204895565865,-0.06458531609129846,0.9979087869470002,-7.40618861936626,-0.2971353684060563
90.879,0.022929055456361633,0.021607910454306777,-0.03180867553988262,0.05094553110560515,0.0061133492571498575,9.799337227157606,8.599031165957897e-05,-0.0026042376038410506,-0.06579538165664692,0.9978297341254295,-7.545147902541621,-0.2971289880832043
90.979,0.029302643948618215,0.016112402407918596,-0.03209842844589297,0.04399696460173097,-0.003374702828914662,9.798783274399646,7.784641824333035e-05,-0.002606088599925405,-0.06701478050882992,0.997748576263328,-7.68518896844445,-0.29736692680274773
91.079,0.0077925230704620554,0.0019625435798725738,-0.00010999981657666206,0.06013307872292015,-0.030390717050273932,9.809589707007307,7.76682619112296e-05,-0.0026116865102113525,-0.06733488014188983,0.997727010247538,-7.721953431150702,-0.29799902934898714
91.179,0.04837014172363072,0.022103591836784384,-0.02456799906922941,0.05736664423966334,0.00146550211396561,9.779284462335859,9.22953208731821e-05,-0.0026071909299303624,-0.06757364901143458,0.9977108779582933,-7.7493810749308265,-0.2973648286635429
91.279,-0.006593013600846411,-0.0073418575771310585,-1.883551364268054e-05,0.03424653243581174,0.02888160747345639,9.849886441338429,7.673546000800601e-05,-0.0026103860436693543,-0.06779863508928743,0.9976956074256327,-7.775217728568332,-0.29784406962353965
91.379,0.02458367016402094,0.022436445586928522,-0.032863239491889205,0.06064119972831496,0.027036943951388014,9.759305568873078,7.984486722902093e-05,-0.0026048577798273714,-0.06856930602698619,0.9976429514669674,-7.8637375434413475,-0.2971651016423029
91.479,0.022962985138783153,0.0215827292371129,-0.03179219142867241,0.049069123184271285,0.006631133920934412,9.8023331641665,7.627508358658504e-05,-0.002604882593197719,-0.06976537876042695,0.9975600236051971,-8.00112675968252,-0.29716077971536536
91.579,0.026245453348555492,0.022596826466984084,-0.03191056191876497,0.052836371540597574,0.004130011658234351,9.800260605849678,7.249584825593793e-05,-0.0026055245470999913,-0.07097962781726429,0.9974743597812974,-8.140615619446267,-0.2972287128113392
91.679,0.02403395798732754,0.023711968503785326,-0.03270239891276147,0.04844692667992355,-0.003958735420252208,9.788239516561848,6.774009536758863e-05,-0.002605843119655495,-0.07219108811098968,0.9973874130899519,-8.279795844647055,-0.29726844174132905
91.779,0.02017710938495365,0.024062347318943376,-0.0324965645830517,0.05169650007538809,0.01847826091744785,9.809466796235142,6.568326128136845e-05,-0.0026057027073357786,-0.07340253406687144,0.9972989892663442,-8.418987422260665,-0.2972338875315582
91.879,0.025463030764392002,0.026992093115653933,-0.036579195420077634,0.052832448437838304,-0.0014370738545522385,9.797049972608246,6.440353491176991e-05,-0.002605918722317659,-0.07461438342629458,0.9972090547250918,-8.558238056494377,-0.2972335388470031
91.979,0.02472657561956454,0.020939726754526992,-0.03134896437135008,0.048481647890294785,0.0074995287715418045,9.804714056023228,6.020309130303947e-05,-0.0026055091550967005,-0.07581908363155312,0.997118184697733,-8.696678839884227,-0.29718720885683075
92.079,0.02259596985915232,0.021297527912867056,-0.031669348853537414,0.051989578441727344,0.006381924996429346,9.798690527320904,5.660915613138428e-05,-0.0026058390036977847,-0.07703468350786555,0.9970250066750249,-8.836385321477586,-0.29722041402985977
92.179,0.02277648588427929,0.0218383718641598,-0.031268547151054656,0.04912152180222416,0.006403978924702151,9.802695952868122,5.140607723145257e-05,-0.0026069974857743537,-0.07824539469112989,0.9969307193236417,-8.975542622715267,-0.29736340425727903
92.279,0.02420926840321168,0.021178629750255418,-0.03150366900277487,0.05169256377395746,0.002677436087822457,9.798524893913315,5.091796601201509e-05,-0.002605724067353844,-0.07944984288049592,0.9968354578744227,-9.113994423257099,-0.29718683111748123
92.379,0.0328548681990383,0.020367209545821406,-0.03523480967502851,0.049117767978782555,-0.0010105180959773669,9.800074329217146,4.6377868789940786e-05,-0.0026062324873229177,-0.08068002339269181,0.9967366448699827,-9.255416878674653,-0.2972501940262284
92.479,0.024361479733103063,0.02604181784127741,-0.03578666000997458,0.05514594405013603,0.008765061178851391,9.794710741534624,4.4999885328989265e-05,-0.002606602661438893,-0.08189123976019116,0.9966378622388951,-9.394673906027773,-0.2972694628765477
92.579,0.03380247040347862,0.01931686462496704,-0.03283883066240169,0.047065304005969984,-0.007687112042652049,9.810644546747882,3.58436358941681e-05,-0.0026078419274410203,-0.08309966908850329,0.9965378281194832,-9.533622137267908,-0.29746206275417203
92.679,-0.0028971024735887202,-0.0013813066206681442,0.0003576674303815715,0.050383338664517295,-0.01212652413385831,9.850636088948288,3.570932456428004e-05,-0.00261566608715766,-0.08398536251575074,0.9964635547268464,-9.63547278367684,-0.2983309455654435
92.779,-0.012257501445679648,-0.006198877768927559,0.0006075669105482538,0.04658483907413444,0.019271230208292772,9.76861028478587,3.494913418998801e-05,-0.002611553573938099,-0.08414922217268855,0.9964497413187583,-9.654316062459301,-0.2978638725421367
92.879,-0.01209982099431442,-0.00626388574481625,0.0006539978985014435,0.051186034407554724,0.00517856342391435,9.799732159274862,3.4493579190838956e-05,-0.0026109808757411616,-0.08436489331388496,0.9964315061082707,-9.679118421841261,-0.29779656267932875
92.979,-0.006740153808062973,-0.0017241107904063424,0.001552445744388274,0.0560877887333054,-0.007269745553354688,9.79700713894118,3.4469290690573295e-05,-0.0026136271202062524,-0.08456094477235704,0.996414880651805,-9.701665263060512,-0.29809320297839614
93.079,0.04474150540725381,0.021593564044357402,-0.022154483753210035,0.06255070195744453,-0.013303206582865114,9.75745821010183,4.8918282847176204e-05,-0.002608046537042759,-0.08479292016584777,0.9963951808343968,-9.728347576144795,-0.297308799141104
93.179,-0.006891967150301056,-0.0068201233075575116,-0.00019610998707589466,0.032695670802657915,0.03041444922922941,9.85720112399334,3.337826687913619e-05,-0.0026111323407257262,-0.08504030814144455,0.9963740898201835,-9.756794877216672,-0.2978048766365641
93.279,-0.004502320986190175,-0.001654488964279695,0.0008995377126010733,0.05726345896581267,-0.0038169915116757196,9.797059063960283,3.312204035176926e-05,-0.0026134978544033356,-0.08525955689233436,0.9963553464956258,-9.78201088241416,-0.29807101666870145
93.379,-0.010173545228694523,-0.006016350694545057,0.00021776919222101722,0.046005754150861944,0.017610835138566493,9.79539727666748,3.168444479092243e-05,-0.0026117755353824456,-0.08549378373688675,0.9963352801978855,-9.808949373217214,-0.29788155953628564
93.479,-0.0003098665103882721,-0.007258379212215784,-0.0012448876134984787,0.048621682120689416,-0.0030611009915230986,9.819080293102523,3.122218538799177e-05,-0.0026121637649439626,-0.085706199763545,0.9963170293374152,-9.833380270421532,-0.2979241905543106
93.579,0.001125320000178224,-0.0025102222088572504,0.0006280088776234374,0.055538574706419964,-0.004175266544627547,9.809175671818236,3.047150137765682e-05,-0.002615015086339174,-0.08592490108222356,0.9962981843512493,-9.858534651402602,-0.29825069087652234
93.679,0.009171724743529543,0.003740702824097639,-0.0004158437113917703,0.05945933620506687,-0.0008288337672585347,9.747008772262028,3.0006027166054e-05,-0.002612953263408087,-0.08612362120806125,0.996281031358568,-9.88139095653405,-0.2980140586949798
93.779,0.0158469433894976,0.019527514526632393,-0.02244014939855056,0.05147950864284804,0.03138522486033564,9.791120193811098,3.5517572185370704e-05,-0.0026110017957189364,-0.08634911643400979,0.9962615176243589,-9.90732915499956,-0.2977301148627527
93.879,0.006257654776469907,0.0020670966900969974,0.00015845186857223084,0.04893550414840939,-0.021006074535710274,9.805633651645183,2.9553090177501473e-05,-0.0026137992576749777,-0.08655376242648764,0.9962437519954014,-9.930866694925378,-0.29810249063771826
93.979,0.025748217501785263,0.020151640767976237,-0.02534930332839945,0.051844047876808214,0.031152491564967834,9.80778661613075,3.501284414593218e-05,-0.002610376745401788,-0.08677765585788975,0.9962242835582545,-9.956621480363038,-0.2976508932015979
94.079,-0.0076098181751676095,-0.002602579818513294,0.0013141965442818547,0.04446889711144541,-0.006698300324447834,9.821363049043965,2.921624551453287e-05,-0.0026133198713954417,-0.08698473071515074,0.9962062167684328,-9.980439353047393,-0.29803842011256443
94.179,-0.0021734078193712454,-0.006957833212154274,0.0014517231594572651,0.04642164159819734,0.0076508719254403095,9.804898720983418,2.853703865147414e-05,-0.002612283827005084,-0.08721639634424676,0.9961859642494307,-10.007087540264456,-0.2979200970422089
94.279,0.0058336985279010345,0.0020083054440893427,0.0002037021909486563,0.06120819592279626,-0.011414701437042747,9.762753817285795,2.7513822950914793e-05,-0.0026138415017930914,-0.08741309622439059,0.996168719486844,-10.029714157090828,-0.29810235599619544
94.379,0.00967608338603844,0.009083851826072577,-0.003125746243285053,0.06141833825787368,0.015068429077287757,9.806123884568034,2.616233468097501e-05,-0.002613187796887571,-0.08765079719449954,0.9961478345688654,-10.057057459833075,-0.2980343040037139
94.479,-0.020419522551997273,-0.030954613907600907,-0.013573366639201128,1.0578330792676243,0.05626081536777735,9.74040092444596,-0.00027585146734681665,-0.0026690385553110587,-0.08809536726111786,0.9961084310486921,-10.10811310087441,-0.3074452475012612
94.579,0.026184487434151294,-0.05511370098984088,0.0002445836296216986,1.03377095970457,-0.12058313364796856,9.831593710449063,-0.000281282759657562,-0.002671277687135733,-0.08889609741441767,0.9960372829467851,-10.200230899686618,-0.3077596987227436
94.679,0.018163556415230736,-0.020032962965311076,0.001426003477433327,1.164533770523631,0.01524385904703776,9.839670562987836,-0.00027012257202414347,-0.00268088194929191,-0.08880792461095055,0.9960451257006712,-10.190090693909736,-0.30874191318179545
94.779,0.002386786060135752,0.05532259816434543,1.0164375514409865,2.2442792436692187,-1.6115738483364022,9.713970460593808,-0.0001879725393811064,-0.002675331570620065,-0.06938342491294683,0.9975864612226156,-7.957176005865298,-0.3073264932577795
94.879,0.023725834315016545,-0.0637158903788998,1.038090741580241,0.18941918526674173,0.4467468398586231,9.72267124436343,-4.150404848179218e-05,-0.002706884871292253,-0.01840188999741225,0.9998270057846161,-2.1088306015456553,-0.3102215324531612
94.979,-0.19566390429880318,0.008026127870480345,1.0316984156831739,0.34916986456851146,0.7094112339292887,9.939836021409475,-1.2779695517615678e-05,-0.00256160939093735,0.03287853508587549,0.9994560720334907,3.7683225399648785,-0.2933322823330025
95.079,0.07010431630894579,-0.012465861268408606,1.0333505156426703,0.240118275477577,0.27519991496366936,9.580303497382134,0.0003646919268051929,-0.0026375283912688343,0.08436529129621273,0.9964313363540355,9.679046748778976,-0.3046870163832176
95.179,0.04887184423607897,-0.024774529558182844,1.0062148596123583,0.29580893882500786,0.6129714790552415,9.905036415051116,0.00037708467381667284,-0.0026815286392888413,0.135757000383429,0.9907384640046025,15.604846244532128,-0.310302332223876
95.279,-0.12901255346619064,0.003351732727138637,1.1097313206644956,0.27080626769301497,0.6862971873002384,9.81817354102608,0.00025867534720753024,-0.002621868166924745,0.18638874145744982,0.9824725420856746,21.48436562871331,-0.3007042595671494
95.379,-0.12032898136822687,-0.06601923130381043,1.0502970915898275,0.16649071219617573,0.4758828823567341,9.89750143160548,0.0007305584560902085,-0.002570988603181451,0.2359193935752515,0.97176895198243,27.291715856222602,-0.30604798559286456
95.479,0.1898572758847607,0.04660772630508881,0.9542305174847482,0.2892815600738593,0.27507569799223797,9.685189071603109,0.0008608102030002534,-0.0024768280800052524,0.2852814497872755,0.958440200917995,33.151427551262096,-0.30016992667375253
95.579,-0.04180067037773076,0.03405307344006796,1.0530761661907886,0.47021083485687,0.8116280153194834,9.815049400219458,0.0006769848860573837,-0.0025198289509557235,0.3342834691587167,0.9424689673409599,39.05814319298237,-0.29807294822225866
95.679,-0.032195385381115445,-0.0662153742310769,1.0397639708518194,0.05532160214303007,0.49265271248663045,9.86252071669014,0.001039323427776267,-0.002505317017441775,0.38210794783651175,0.9241137156181721,44.928803434068044,-0.31081182643434924
95.779,0.0033822017982551183,-0.0032057890133407887,1.049679789392824,0.281965763295272,0.3780791052636437,9.804524590473482,0.0011399004233199168,-0.002450116218911892,0.4291669576992509,0.9032211357008361,50.82961518968697,-0.3096513167188109
95.879,-0.10052186489020279,-0.0900251494016139,1.0428667183323796,0.213625555120733,0.7760863447767383,9.744638426781933,0.0012693318719196403,-0.0023406580638737117,0.47561936838581437,0.8796471602481907,56.79958803986814,-0.30512118267185695
95.979,0.011714668479143129,0.05759808629487238,1.0292057302623976,0.3670220099651489,0.344053749251126,9.825730254754975,0.0014304502934829187,-0.0022788763487345764,0.5204486853699,0.8538887084575413,62.724948376905466,-0.30829664216765434
96.079,-0.004736696760617897,-0.05880483087549056,1.0274889644149874,0.22424035319458913,0.5739839747089537,9.807596526941204,0.0014992271922949,-0.0022531888925616415,0.5638580001979968,0.8258673205003066,68.64634921225269,-0.31010762344767256
96.179,0.11866897846251157,0.043151002100702086,0.9846214907988916,0.29496617212065207,0.4526036434096111,9.68820528500766,0.0016918529958333118,-0.002050756075999639,0.6054974863801379,0.7958427771992984,74.52957447031908,-0.3044130088496897
96.279,-0.03914887641208997,-0.006024846072453842,1.063176310167182,0.2836746158738978,0.6455965510286868,9.817751230736814,0.001718870816629623,-0.0020847098426864997,0.6452814049202521,0.7639401860958313,80.37391830513091,-0.30959913669141864
96.379,0.08714369290043247,0.04325476838268481,1.0124014661675802,0.23465109190339978,0.4280148991161158,9.90178336734632,0.0018288568868616087,-0.0019352179437398757,0.6837711413795992,0.7296916721673874,86.27845892942159,-0.3051165916256912
96.479,0.04814324618095927,0.023511258935815432,1.020172022938597,0.27979681066182416,0.5831666992643277,9.81610471739776,0.001897631574899386,-0.0018637582783370427,0.720576189413857,0.6933706661298059,92.20457396766459,-0.30477641830202734
96.579,-0.18857439625962802,-0.008776709360949236,1.0372736045314537,0.23777598858012378,0.6107860034888727,9.854497708259913,0.0019228633606401756,-0.0018450514168374202,0.7549232003073466,0.65580779197832,98.03782787290572,-0.30499985318993494
96.679,0.1085493863475716,0.05480110400194189,0.9817893432281644,0.3371031163095779,0.4024284674396609,9.611595363124819,0.0021490542653436633,-0.001542525126825336,0.7875125503601417,0.6162929378203705,103.9077977289975,-0.30287315172124946
96.779,0.06355951787041855,-0.08018304485632169,1.0651863109780342,0.27823469327246975,0.5199285160476218,9.90525173702183,0.0020569068354420778,-0.0016867644022705171,0.818050086144932,0.5751408353772065,109.78078364073272,-0.30398761081436476
96.879,-0.0317719826786203,-0.056456559807833366,1.0202505340865284,0.18388866541169172,0.7055884205039563,9.699914465582589,0.0022814145210436807,-0.0014687536383810877,0.8463275795303778,0.5326558607926745,115.62958938536093,-0.3109072485885469
96.979,-0.04922152301095903,-0.04200211415022675,1.0207240127902435,0.22101625071144143,0.39041016288851976,9.928630625909978,0.0023773768299712806,-0.001258968552687254,0.8725611395368267,0.4884975136556854,121.51599798070667,-0.3081851299884864
97.079,0.04736837855138072,0.12924339588713424,1.0351373475955077,0.5273856861090719,0.5265641459305505,9.594112227100819,0.002223280863676914,-0.0011103876746269689,0.8961956816560904,0.44365203058521974,127.32557076258354,-0.28477499987720556
97.179,0.0755839137375427,-0.03370920434317251,1.0226077810890424,0.07838557427820769,0.47875294686345515,9.809139016675074,0.0024800309927018533,-0.0010510160609285095,0.9176667814829563,0.3973416954891934,133.17561381515708,-0.3086486502850352
97.279,0.006793078692824161,-0.029832173576434803,1.0476239336737785,0.2656216332498593,0.5593284244287072,9.923391996521124,0.002529832911156818,-0.0009625691885835895,0.9369790663672943,0.34937501713126573,139.1016627866363,-0.3101662706786942
97.379,-0.19302356015332608,0.031070554168014394,1.045699297436097,0.3252150849601102,0.745136786210608,9.8029585976706,0.002382333903938307,-0.0010869785170184482,0.9537654793224144,0.300540435575246,145.01984008028444,-0.29780977245189294
97.479,-0.09957726397305731,-0.08466681096304571,1.0210182045470526,0.17932586934977124,0.3864615543610588,9.887807450373124,0.0026091102332691466,-0.0005063128952088059,0.9679208376428807,0.2512412948695873,150.8978891031023,-0.30396915771067257
97.579,0.09056731901483886,-0.03404850182486579,1.024579970916113,0.2952453504828224,0.34989112001724715,9.683796018804205,0.0026303465380927583,-0.00046808492676198596,0.9795553517926866,0.20115709022526893,156.79063306562142,-0.3060444127947393
97.679,-0.03086339655110742,-0.04156453201441797,1.0825613222363426,0.3889952805656514,0.7309559427469045,9.722890909284027,0.0026229890333710946,-0.0004904318436812971,0.9886802936288884,0.150013854010329,162.74450718883824,-0.3056021413344634
97.779,0.00012675934812659065,0.07117782289751641,1.0276456061386863,0.199139527163097,0.5422534358906118,9.940316354371893,0.0026545745457238375,-0.00027380916168397076,0.9950957980449671,0.09887988155218672,168.65061703555816,-0.3058039462246761
97.879,-0.03603871642077366,0.029391527200116386,1.0365472518671632,0.23426419745459515,0.5132816207777386,9.850774235030288,0.0026460226629523523,-0.0001676845382567344,0.9988522601886081,0.047823976853371766,174.5176779364463,-0.3037842259897337
97.979,0.06896780366488102,0.0467065682043725,1.0382937323463906,0.3282759923127489,0.41863398865968676,9.6752027106182,0.0026204505611325036,0.00010477922508811021,0.9999906729077084,-0.0034316698208292076,-179.60678624797788,-0.30032129300703364
98.079,-0.005135837106828647,-0.007441655645807866,1.019504895175289,0.2526391246359945,0.6778775380888237,9.802322536520784,0.0026581074710626787,0.00011273600231188424,0.9984912050666589,-0.05484738061017415,-173.7117653184672,-0.3048470945970114
98.179,-0.062271784810473775,-0.048126524019650424,1.0602569178845456,0.19322266587452,0.5137226573027305,9.877942121553856,0.0026359258544844714,0.0002719827347651577,0.9943453505062277,-0.10616167786413579,-167.81175436948214,-0.30365699345564917
98.279,0.10325004249447631,-0.0025629067386480006,1.0039976353116864,0.36644213065964537,0.3945697690297153,9.71203427463804,0.0026168411206701674,0.0004251653954870532,0.9876241162980962,-0.15681701528641692,-161.95555412873165,-0.30379837924789066
98.379,-0.07783194945368335,0.022722046281149225,1.0223930055063504,0.14928010663356955,0.7594928740882502,9.884651974370643,0.0026060078381454047,0.0005263008598516124,0.9782354115895603,-0.20748111056854296,-156.05034703694335,-0.30464156378106544
98.479,0.007096125159483371,0.009854130673556264,0.9853604039618817,0.3356257314726704,0.49952997784926517,9.67968152109277,0.0025739744407887516,0.000681895027095055,0.9664202153998295,-0.25695306369315296,-150.22120280387998,-0.30513079791513853
98.579,-0.03252223145396551,-0.021502119034366794,1.0757478580794793,0.17604254005953873,0.4924442001418901,9.990319334730883,0.002496560222445575,0.0006142336914650048,0.951972908727997,-0.30617147311920584,-144.3425125612087,-0.2938963837230609
98.679,-0.13280547232495743,-0.08258687943624879,1.079392328672016,0.1845430596468775,0.5993803740284718,9.786222274248349,0.0023851936188555266,0.0010138514439869343,0.9351027184741473,-0.3543673078303216,-138.49053840966707,-0.2967564337013002
98.779,0.1224255772772349,-0.0291136584318798,0.9921169141073718,0.3443923911396435,0.23165915016614846,9.597629249445365,0.002386194020082395,0.0011313183875947509,0.9155274106652324,-0.4022469223218735,-132.56240782325085,-0.30248821321418246
98.879,0.07402401953486702,-0.06296340417811258,1.061180626835698,0.32648728073222255,0.5576336686475439,9.956335932294932,0.0024558675341895125,0.000981004845142996,0.8933787919599949,-0.4492964950010721,-126.60261642807237,-0.3019251754884129
98.979,-0.07869987708570765,0.07213221435863469,1.1097426229798282,0.24348910025217105,0.6855922114819977,9.782997139283466,0.0023288274866218217,0.0012952964695110666,0.8689929745223125,-0.4948172480830242,-120.68435977168278,-0.30535010743175495
99.079,-0.07588301762053154,-0.11253086249094647,1.0374278990176327,0.19517130492852353,0.475095259114412,9.822426923056728,0.0021485300845115922,0.0015179965049890698,0.8422822821237177,-0.5390302744053888,-114.76448292936783,-0.30113825129343347
99.179,0.13042675264784692,-0.018013501153646874,1.0020277351835163,0.3863271756420492,0.4178361151362718,9.771709005079504,0.0020859895688227696,0.0014335696054115546,0.813400024940343,-0.5816992289428914,-108.85943114041189,-0.28999240150868816
99.279,0.03643659883237864,0.01989924145362213,1.048598654811077,0.33055418997532315,0.5885819492752712,9.784889525742456,0.0020763122914329592,0.0016584811790977517,0.7821218343044597,-0.6231198718317964,-102.91103124650947,-0.30451266028365226
99.379,0.01677521841372407,-0.012722791757401757,1.0176924927688993,0.2642582693778276,0.6077376829222895,9.767441087396524,0.002004471730677784,0.0017575809182986484,0.7490938040456605,-0.6624585766240769,-97.02433953064282,-0.30548671947391437
99.479,-0.12973499652750475,-0.03020131441238387,1.081657355526359,0.20227385390848196,0.5970105041510944,9.769666350916275,0.0019366055356215678,0.0018013966430282945,0.7138494822495272,-0.7002941676332998,-91.09836575415721,-0.30297604196319255
99.579,0.06598144811591755,0.07564694006913654,1.074176477015164,0.37904963137979025,0.3305966099419046,9.821359615758738,0.0016525153582306773,0.002002639117643976,0.6765848028980359,-0.7363601449813679,-85.1550769216217,-0.29710635118836454
99.679,0.08971654055156347,0.013134056932957883,0.9418073198508694,0.15506630547458702,0.6928080498921494,9.779470677047419,0.0016777478046554723,0.0020780736784802765,0.6378877572853446,-0.770124714496012,-79.26933797078587,-0.3060286049432214
99.779,-0.05679648767342847,-0.02489779505394353,1.033395906585619,0.2738865968135857,0.5695032645013518,9.82591130738651,0.001642074680743326,0.00217031713729173,0.5978666135575966,-0.8015909840482476,-73.43482549848333,-0.31185654083768816
99.879,-0.032583429216009235,0.010331850161720108,1.0840445456330285,0.30472126332039945,0.48003641723251883,9.699073514787479,0.0015429159977069422,0.0021992546476687675,0.5560169400839604,-0.8311666168879069,-67.56183366076483,-0.3077754401556618
99.979,-0.03733853131817702,-0.016351172655944164,1.0430377355632583,0.19576475456164896,0.5789656813753656,9.995666344159758,0.0013596522109683069,0.0022900026716193337,0.5133576087819414,-0.8581706547880303,-61.77572243338302,-0.3051817861682792
100.079,0.09965967714980244,-0.023344643770434298,1.0053289787981365,0.33718997324743033,0.3419958638380372,9.648768599974119,0.0012652684351143865,0.0024025204634658998,0.4684205905389586,-0.8835014303046391,-55.86387112059346,-0.31115291248439436
100.179,-0.030215396787249837,-0.030773329766010216,1.0280482375866469,0.28948190182599115,0.7280629889205884,9.84092576719196,0.001207550185967061,0.002449204129893519,0.42285492139882935,-0.9061932788707209,-50.03010557314032,-0.3128446306003104
100.279,-0.0995931517039244,-0.053506814219761105,1.0388828892726756,0.21182081244208356,0.5571998011234366,9.927879061649573,0.0009606740908771214,0.0025326978788876983,0.37601179138566904,-0.9266109190408267,-44.17391294637153,-0.3103212224124881
100.379,0.07603987243795982,-0.019425532837213183,1.0082830460121128,0.24592200634218522,0.395804236643757,9.73460150758138,0.0010521759648452944,0.002472901385091461,0.32818905518027,-0.944608237177911,-38.31787838931825,-0.3072484462501632
100.479,-0.0627554523458019,-0.053865621958989585,1.0305366380399712,0.2773985147027459,0.6932030078254937,9.748816554629308,0.0008259040979584884,0.0025967209558927524,0.2795000467872083,-0.9601418118010728,-32.460839291904776,-0.312155894981997
100.579,0.04048025047841462,0.011255223251336322,1.0203318348731136,0.23083656205483036,0.37731309035351474,9.819034900327363,0.0006167911889288555,0.0026726526972738877,0.2298829905514725,-0.9732144096504637,-26.580472286930902,-0.3143094833099827
100.679,-0.03934747899187417,-0.06050893429324043,1.0266850205413107,0.2809138117484525,0.5664802403430017,9.871965366063206,0.0005731124272477416,0.002573572994955349,0.1793442775368706,-0.9837828410675615,-20.663178067637723,-0.3019067692472323
100.779,0.12297490038157155,0.05374333941054095,0.9862868251108345,0.3262295927311268,0.4350497364834063,9.511088709002841,0.00011261051558068858,0.00263276862908436,0.1282666934659964,-0.9917362104892194,-14.739004707690796,-0.30085649728462877
100.879,0.09274528184874753,0.032223182428806244,0.9673408136248604,0.28537665902487297,0.5471874286007379,9.902246422644108,0.00014502051640186608,0.0027088113199640355,0.07721328778569271,-0.9970109074125549,-8.856859208805087,-0.3107637411697755
100.979,0.05932037367691076,-0.09899433007065238,1.0886548053117122,0.2775549468573428,0.5914781011076385,9.871491831341565,0.00021740602182869804,0.0027053149574876425,0.025013880920384084,-0.9996834197719313,-2.866642692015373,-0.3105328052577744
101.079,-0.06061424741548203,0.021573195445163503,1.0955292974226012,0.19235450896845993,0.5836144056075384,9.88185087657666,-0.00012327403702205178,0.0027116927389640782,-0.026686432771419577,-0.9996401681764983,3.0583984757186005,-0.3110037896032907
101.179,0.1377838615523443,0.10153490003205755,1.0277321216109316,0.36156989224219116,0.25344602874376876,9.646561836402716,-0.0004956321492029454,0.0025786346043995697,-0.07789767262466867,-0.9969579016147118,8.935411321811937,-0.29901642651800775
101.279,0.04423814459749509,0.020867678487923962,1.0058370509434562,0.2925682820641707,0.7891108044216142,9.768188796940311,-0.00035141208683437346,0.002663679450253244,-0.12918656862543074,-0.9916166657575489,14.845232080478153,-0.30787996976384957
101.379,-0.07455140743941097,0.007565012260594747,1.0504363070059402,0.2718781807238013,0.6330788235783668,9.895226914402556,-0.0003826614653672204,0.002684638799913503,-0.17956700718546809,-0.9837420069383898,20.689190152522862,-0.31051087880694356
101.479,-0.002416785754355494,-0.0006132787793895851,1.0554594035585028,0.16692361707074105,0.3943459941287454,9.900698993795706,-0.000634401723084188,0.002671737133430056,-0.22974778454187192,-0.9732463279423382,26.564547314460608,-0.3146712342223155
101.579,-0.06231424709994238,-0.06404121440076489,1.0701203118920266,0.21640621020630876,0.5587434730416442,9.733354574116781,-0.0008289657989765418,0.0026035134559066917,-0.27919702083664705,-0.9602299506312693,32.42467525699371,-0.3129988179760801
101.679,0.062598143481867,0.024083831736888744,0.9773046315989159,0.40272120720634424,0.5504162198364145,9.615842949984602,-0.0008793676721243652,0.0025268604810012064,-0.32841796432246667,-0.9445287091448803,38.34570332204887,-0.3065903094329652
101.779,0.019664108043813557,-0.019545230824959823,1.0236911059933997,0.22117917819203864,0.5048439430779156,9.989099527649177,-0.0010287303543639334,0.002547533583520842,-0.37703140821984554,-0.9261963987201953,44.30002254475991,-0.3148281514107934
101.879,0.12441322227982785,0.012901401542919251,0.9661468908763731,0.2797930704095487,0.45392519218724187,9.69218025207631,-0.0011794073772445107,0.0024307891542524242,-0.42389788204748546,-0.9057059599329036,50.162029773010964,-0.30957387037613376
101.979,-0.022910777606033085,0.025997066870740576,1.0069964644904335,0.34214012232493735,0.7358241659593612,9.792140693378354,-0.0011885962922889397,0.0024271711530512766,-0.4699406965998246,-0.8826938527928692,56.061145291612085,-0.30951546362899734
102.079,-0.06774480808502872,-0.060636090993280545,1.0578125024526897,0.10910298828387335,0.45361397708136036,9.977726656748438,-0.0014345013443515895,0.0023187319607008657,-0.5145157593107129,-0.8574765880820933,61.93043033310111,-0.31241617310901887
102.179,0.08390992501608381,-0.05663081215385143,1.0101244977880977,0.2705957602698512,0.34887478345056877,9.676649537869073,-0.001400276811451203,0.002312635206354872,-0.5580355351782404,-0.8298126489886667,67.84042238587938,-0.3094512158520739
102.279,-0.06414256773375024,0.021838894947948276,1.0298845258204548,0.3701109084457649,0.7334562447787626,9.797670979545972,-0.0015435201568163124,0.002179922077926698,-0.5998069917501971,-0.8001402615372123,73.71248001095462,-0.30596751769374925
102.379,0.10525730589054078,0.055646634504524964,1.0008656736320636,0.2436786876334423,0.3346418713429336,9.815299483025065,-0.0018335713787672801,0.0019530391990184035,-0.6397606378161914,-0.7685695478971998,79.5482396701687,-0.30642997520123694
102.479,0.11554502995075287,-0.04656356236019588,1.0322162104302595,0.2869136417030733,0.49616136385307413,9.782291878326522,-0.0017576506835633634,0.00205544258651681,-0.6789415031893147,-0.734187388251039,85.52238735967515,-0.3096762603279255
102.579,0.018675060434028858,0.0641806220468673,1.0234043492934926,0.28202807313520456,0.7207157742025233,9.811708688274063,-0.0019123844862694525,0.001919947776561439,-0.715544856570188,-0.6985615325954193,91.37618262826189,-0.3104986413029658
102.679,0.01254320513539062,0.047609420370036674,1.0942131241582822,0.17562510079704768,0.4074884733540467,9.84152399343018,-0.002044766707028484,0.0017835665036910835,-0.7504419526521071,-0.6609307932902909,97.25782632261006,-0.3109219716968617
102.779,-0.05876150975633507,-0.08938032757144056,1.0260829002162422,0.25002650455326303,0.6963652047971846,9.917955204225061,-0.0020718720412412827,0.0016496820128761522,-0.7833405163509276,-0.6215871791941682,103.13541930555911,-0.30348599092961887
102.879,0.10744574681542989,0.05318677293331252,1.0010683578623567,0.40630942772142076,0.31228391021506574,9.608383889210291,-0.002256261062077278,0.0014528948852854928,-0.8142460514261537,-0.580513708812625,109.02630228812366,-0.3071729757699109
102.979,0.025033741853081035,0.05646471329297317,1.0450622051003435,0.22549453193963348,0.6263364857584084,9.858919996040164,-0.002306833838845759,0.0014586011510289833,-0.843074343286487,-0.5377901102589938,114.93306751814971,-0.31275098928315015
103.079,-0.04217138682401778,-0.018640124088988193,1.0368965506472136,0.29847437719560244,0.6581282617625784,9.84707539226257,-0.0023310521253282136,0.0013963143469258273,-0.8695465663160468,-0.4938434828062495,120.81274502147402,-0.3112916915888159
103.179,-0.13258628365896832,-0.018341677423070975,1.0222130745304574,0.20032363719807034,0.6201661835333592,9.869184093977017,-0.0023855282153926287,0.0011886440746562382,-0.8936274715933565,-0.4488015579229445,126.6661547861859,-0.3054153225075456
103.279,0.045761195125717594,-0.06198111869951149,-0.2580038990355778,-1.2980259494866107,1.8977283847464879,9.652780988292081,-0.002346874868636237,0.0012423105096924757,-0.8886221934046256,-0.45863225598697366,125.40203059867352,-0.3042705257493737
103.379,-0.013824058074719738,0.025352770992343083,0.5424250981927261,1.3866822587645085,-1.17317925927537,9.745805141843736,-0.0023864856336696916,0.0011815890165855335,-0.8986290086777735,-0.43870128025402233,127.95771210735715,-0.3051507238006832
103.479,-0.013125770732375159,0.043033325863614184,0.4738232875340204,0.12893292918652477,0.461199450511693,9.878211330342547,-0.0024077029280996343,0.0011536556569285456,-0.9095390142057417,-0.41560997784326953,130.88435712535022,-0.30588878600651653
103.579,0.012714386305386332,0.02339560307909466,0.5110636814254267,0.022812631026518555,0.15403993449617706,9.822049884022102,-0.0024374709300861125,0.0010461447425354935,-0.9198928690838385,-0.3921607753528475,133.82179784376643,-0.3039519905832082
103.679,-0.09797523996434217,0.0026244989931328913,0.520811576725825,0.1291250763220127,0.4201923140387682,9.69023424880513,-0.002410560528717782,0.0011256737487967097,-0.929581344910635,-0.3686074405796548,136.7403669387241,-0.3043272554027366
103.779,0.0007371906339804545,0.014051809703272456,0.5470855653073368,0.13335992442972378,0.046899395688337085,10.007324997705183,-0.002496632901611017,0.0009610007056214652,-0.9386976061035092,-0.34473126866784154,139.66907755798263,-0.30651902231257755
103.879,-0.010550059062481796,0.027319273688357924,0.4955997579367255,0.10492780200562551,0.4176396739488829,9.683822329839915,-0.0024718444691067838,0.0009149683524886681,-0.9474587543361668,-0.3198670999799662,142.6901129379669,-0.3019087824440496
103.979,0.012646986404450555,0.015988009986192476,0.48223028419461256,0.07855544602878722,0.2190697081462765,9.867496656864109,-0.0025439871872276055,0.0007922747583515087,-0.9554695565511736,-0.29507766254632384,145.67548747548594,-0.30532892307037157
104.079,-0.06266810044383073,-0.011689625377925976,0.5594984901331129,0.07060152938913239,0.2583499690590028,9.722883113854248,-0.002566942253300525,0.0007430866855458844,-0.962839333531323,-0.27006161599643097,148.6640252567429,-0.30621670700924225
104.179,-0.12264759492792143,-0.020453234353301184,0.5749406734469615,0.15134371244797024,0.323328192654026,9.715580053172095,-0.002499766176115018,0.0007836001294420483,-0.9695695528620755,-0.2448020002016671,151.65967929653198,-0.2997183457864671
104.279,-0.030461052086681664,-0.028058479462864022,0.527665782121945,0.04782830483760354,0.2284222302021578,9.800471574549752,-0.002614998861086385,0.0005965194179688478,-0.9755433490445076,-0.21979076432044833,154.60642158360562,-0.30735370602712064
104.379,-0.08226010565486226,-0.03314794528968859,0.5404426416522556,0.1703315499170488,0.3961130710518446,9.750045847438852,-0.0025555348021391315,0.0007207575540064804,-0.9809163461778365,-0.1944121178104559,157.57921728001455,-0.3033126526773469
104.479,-0.01838673120385405,-0.02029816002256453,0.5380447238959651,0.049270008240571414,0.0690493342688955,9.968752313281598,-0.00262694913258793,0.000469234128954514,-0.9855992549306873,-0.16907686902016156,160.5316343728783,-0.30578395563252736
104.579,-0.030220168119064444,-0.05558105094278449,0.5288404928340174,0.04338512478889037,0.372594661647929,9.763429631828231,-0.0026437286487164344,0.0003856898149887105,-0.9897093994025677,-0.14306700065496225,163.54922303282802,-0.3061560205859246
104.679,-0.04544197163459434,0.007194768871875143,0.529016068532173,0.14332148422267313,0.2361199332062769,9.82301716710071,-0.0026390762166323798,0.00031191192327459366,-0.9930658935402831,-0.1175290137570899,166.50091939176468,-0.30452108565457453
104.779,-0.029059937676272546,-0.04686851952791893,0.5171989314918215,0.11112655235754976,0.27696202510400253,9.67980471786828,-0.0026723577347709296,0.00027443908499072715,-0.9957621334174098,-0.09192691031104382,169.45102922538683,-0.3078243140866123
104.879,0.04485455166627476,-0.05733372029428378,0.5223109613304028,0.1005964131947556,0.15169846565460124,10.021834980307084,-0.002615226095902158,0.0002398715924954974,-0.9978251507277679,-0.06586403896811843,172.44706360795996,-0.3008428748488062
104.979,-0.01661326624396535,-0.009187298500867892,0.5168294633087165,0.16155637748527435,0.3467349598193914,9.782770081768222,-0.002652584396321709,9.570940900483116e-05,-0.99919616306878,-0.03999977930386135,175.41512041384516,-0.3041595698939817
105.079,0.030289481541483875,-0.03669532864201516,0.5406911154685032,0.10198566142472204,0.29664318775473747,9.84055569897104,-0.0025744587904099614,0.00019657502709793535,-0.9999014384386212,-0.013800251032907437,178.41859979921887,-0.29529433918203507
105.179,0.11179391532774705,0.008245271318169928,0.47700608704168984,0.09904701811865532,0.17557394931433706,9.626000354950271,-0.0026504794720292836,-7.417607668032243e-05,-0.9999244685782136,0.012001108076126275,-178.62474933704846,-0.30380306668626167
105.279,-0.05084036101144352,-0.011536115126620405,0.5201552219660881,0.08122752329717994,0.2752762090156416,9.793813452808287,-0.0026745210011675344,-0.00012781386635215598,-0.9992820052436783,0.037792917288873226,-175.66821172561902,-0.3068124780224013
105.379,-0.07181666753545464,0.021237887338808034,0.5283676906045026,0.09251061889796836,0.3875093589346826,9.86344137449204,-0.002620362430239659,-0.0001529826444506026,-0.997985660821304,0.06338557479513557,-172.7316464755483,-0.3007791311711198
105.479,-0.038050336876431716,-0.03816703316868333,0.5110909170366134,0.10193702752385815,0.28017444254103796,9.632592097198469,-0.0027165812841225723,-0.00021074376010037622,-0.9960050366015405,0.08925549191818967,-169.75839662351498,-0.31221067995076607
105.579,0.11832635642540955,-0.006313323513277976,0.4645569905987059,0.10642936278747875,0.07433437189790895,9.953568945876128,-0.00260627331173309,-0.00024373331560336884,-0.9933807291246645,0.11483847324501081,-166.81132041869807,-0.2998888135916172
105.679,-0.08632515403015228,-0.0073074602308448085,0.54714177945859,0.11908906243163211,0.3703338299350069,9.802184409227342,-0.002604306727144311,-0.00040196151281625566,-0.9900974334097066,0.14035714577079603,-163.86292688860442,-0.30194277328300106
105.779,-0.013264732088954035,-0.05373217022563521,0.5460272688666945,0.10951909612966317,0.30684076098126034,9.797506323689607,-0.002584332011289451,-0.0003978001550123249,-0.9861057087967895,0.16609844689663308,-160.87782009816007,-0.29960082881661004
105.879,-0.04425111211606468,-0.00580855624698726,0.5728612825147337,0.0817752089709595,0.20924551225966936,9.811289294695822,-0.002615000401788645,-0.0004948746893980368,-0.9815187592658687,0.19134743813578986,-157.93705722783812,-0.30497139925891126
105.979,0.013121382012480923,0.03383345455122169,0.5609892990697083,0.17355622689950007,0.1644770908066789,9.667141428663562,-0.0025981514498588164,-0.0006143330576251767,-0.976270572625309,0.21653785172525597,-154.9883901150504,-0.3059065037783897
106.079,-0.0626809244541261,-0.04912706641959606,0.542447182683341,0.022636113729537555,0.39633778066255493,9.93423700364816,-0.002606235914241906,-0.0007059183341368958,-0.9703246390949882,0.24179082691211795,-152.01539176371938,-0.3093505266795881
106.179,-0.1467766869405642,-0.02280981178116022,0.5652170016055811,0.15144991853550172,0.34250221804156955,9.730235961796112,-0.0025616207417829173,-0.0006659428029744688,-0.9636926126163363,0.26700101686708716,-149.0281009611107,-0.30325908353615294
106.279,0.028879502850811204,-0.027921646178952174,0.5149560264209341,0.11824926095459701,0.12150795377830916,9.924132810182932,-0.0026014586663573843,-0.0007417183088752309,-0.9564473559437677,0.2918923390137761,-146.05729333953983,-0.30993273529874044
106.379,0.02404838969148115,0.09338011825017324,0.5120425227452048,0.197016302786433,0.3019787706118375,9.63269503325053,-0.002501047974406655,-0.0008897088576484679,-0.9486351445091906,0.31636105287978356,-143.1138836450827,-0.30413329726943644
106.479,-0.054720508957369816,-0.006176051386447449,0.5267069654546759,-0.014761300847504169,0.21868723745992566,9.951286242942178,-0.0024766276111512103,-0.0009894845986369706,-0.9401861010352467,0.34065082218607,-140.1668175536321,-0.3054520770637568
106.579,-0.0952822856519964,-0.02765811408826152,0.5697423845287395,0.12941054954401682,0.32406062570409405,9.837505836381315,-0.002443161728529774,-0.0010892517950109534,-0.9311474409059214,0.3646330865207505,-137.22986929740406,-0.3062039729260651
106.679,-0.01906199159740518,-0.058082907576427596,0.5364141609697066,0.10016724721221529,0.3159534889309214,9.577459626814449,-0.002535762683561821,-0.0009605002216769516,-0.9213318689056477,0.38876758440714076,-134.2441176773782,-0.3105091585696731
106.779,0.1222530241384506,0.07864919829060199,0.4873331372204501,0.1293652917313899,0.06713716524959641,9.866798363761786,-0.002348808954405437,-0.0012367663627367792,-0.9108358676340294,0.4127601915602142,-131.24317659150105,-0.3036538537784367
106.879,-0.16914301459627587,-0.0012470376115899517,0.5466757959352769,0.10800484617694575,0.6337043067748522,9.920589576827027,-0.0023611969583275084,-0.0011034122834505306,-0.8998577262237983,0.4361757441509011,-128.27953645208203,-0.2986295904965674
106.979,-0.023362974284527306,-0.056254284800887074,0.549945424713376,0.06491231308727098,-0.034041108584356425,9.837755833886714,-0.0023653679413896136,-0.0012945378150456552,-0.8882324380465885,0.4593864007653693,-125.30476377607285,-0.308904770525265
107.079,-0.05759626346780797,-0.03764939498833782,0.5250921886068559,0.13086329436832927,0.4943314616390251,9.60494714963583,-0.0023991426357319666,-0.0012426486154165648,-0.8760177225155416,0.48227134455378484,-122.33204359285902,-0.3095116202018133
107.179,0.09832515852357152,0.0888129465314978,0.49041061375916706,0.1632032635614957,0.030634455986156564,9.80610602555951,-0.0021574471296457068,-0.0015093631210629608,-0.8635226429809141,0.5043031948184626,-119.42961718163427,-0.30071038298807046
107.279,-0.11627316089187159,-0.022596296303343,0.5770879966531393,0.05448888656641407,0.4129778620212524,10.064259727445636,-0.0021643068037893467,-0.0015238678321912794,-0.8501226869956359,0.5265780195357656,-116.45072727128905,-0.3027937470491216
107.379,-0.090889620365285,-0.03985636234954397,0.547280306746609,0.15721503465161502,0.41696666331865867,9.511763273801318,-0.002297698573718501,-0.001315856922221268,-0.8358874445635648,0.5488944972604644,-113.41727962566871,-0.3028536096358665
107.479,0.01838642136430542,0.04171701307780224,0.5107548951482315,0.05005758014852392,0.08689809787667421,9.91218369913184,-0.002217197841086053,-0.0015645081654161695,-0.8215667309797633,0.5701059049818366,-110.48449153504042,-0.31094701962864363
107.579,0.04805588803063013,0.05038770500164612,0.5363915476853084,0.2604077502831117,0.21318297955468993,9.572836691372085,-0.0020097448212163683,-0.0015562420331209441,-0.8064312209213549,0.5913224373890957,-107.4979306846939,-0.2911740276459936
107.679,0.16169270713054718,0.026593047704758982,0.5189673452916947,0.03359283596116649,0.07870840134349125,9.88096418412333,-0.00188225854957542,-0.0018309251239804667,-0.7910430903297531,0.6117547989656452,-104.56679364272819,-0.2989735819685264
107.779,-0.012141294937448577,-0.06127421576232189,0.5326963602105715,0.0309121900793737,0.5715300681821536,9.92238545960986,-0.002113785256782771,-0.001729875283250983,-0.7747962991186923,0.6322050571732013,-101.57366110678984,-0.3129956686957076
107.879,0.06847731897575182,0.04113654390283193,0.48495972256290665,0.2139294624832873,0.23968901004399865,9.765626806734414,-0.0020207942346174485,-0.0017931258197615332,-0.7580917651921945,0.652142297844756,-98.59301837901445,-0.30955005185250195
107.979,0.11828018364542914,0.030725561040766902,0.5025267558489483,0.08648346428352024,0.14407566489411652,9.665195392528963,-0.0017773594291057588,-0.001921896197002318,-0.7409591093960636,0.6715450435461944,-95.62686444873408,-0.298809218076906
108.079,0.16250524821392237,-0.00946941509059819,0.5159976052198711,0.12464332401145442,0.19081337230682066,9.926451524006842,-0.0018196355816253254,-0.0018444892043956544,-0.7231404105901802,0.6906961946886565,-92.62916746538988,-0.29677440790539145
108.179,-0.016199750039294886,-0.04624566156644262,0.5286805683201294,0.013092512125915251,0.5271123285578471,9.776109690527145,-0.0019254010793311916,-0.0019458595551284812,-0.7050355466530902,0.7091666830984473,-89.66526064012828,-0.3136862160695017
108.279,0.1068574168271586,-0.01730646955198329,0.5211685181486332,0.20501850808780062,0.11300846634450191,9.948427027770718,-0.0018761277286521718,-0.0018714618063707753,-0.6867154901692711,0.7269214629772811,-86.74169726698945,-0.30352830141339115
108.379,0.1549622863586619,0.05187485263437028,0.45063621879535787,0.07597456989448914,0.23205882898468563,9.629923120343086,-0.0015824720857273756,-0.00211027223518576,-0.6674948240567442,0.7446097651727696,-83.74844133713857,-0.30110460038771386
108.479,0.1015850281316387,0.08757952738110937,0.5197805706506562,0.09994466141382155,0.28280169261739324,9.821691885434973,-0.001552480333028442,-0.0021314237911805654,-0.6483164547728054,0.7613664172448501,-80.82997887455363,-0.30129617734138064
108.579,0.0433745323623657,-0.029523763157378077,0.46478497527033763,0.058659376331856,0.5011205960267145,9.893107137797946,-0.0017358745026802033,-0.0020905698296532498,-0.6285072850493676,0.7777989514632759,-77.88048737159555,-0.31135284779159395
108.679,0.05560758536837254,0.0792394402627782,0.4889407049370915,0.24250041335455585,0.19510630141243335,9.714644874253342,-0.0015798610558206522,-0.0021257369728620162,-0.6082558292095808,0.7937366260378389,-74.92730909007352,-0.3034667949329718
108.779,0.1536140076971369,0.0033128471817518573,0.46911995689784025,0.047797167309379524,0.10905301662019595,9.829134433759773,-0.0015146153499376875,-0.002160635818631131,-0.5879135925533359,0.8089194306506867,-72.0184830945679,-0.3023218097252623
108.879,0.08280666539007436,0.009257159835874787,0.4914607824599966,0.06964207584547931,0.34414339646574327,9.681493160780976,-0.0014033033354544809,-0.0022696588169486723,-0.5670722953049987,0.8236637003572053,-69.09295954653275,-0.30541201799574097
108.979,-0.00011682033684482125,-0.031144263976392507,0.5274087859554679,0.1273358049268522,0.3216634267503094,9.938255015733365,-0.0015423426310337994,-0.0022304088467270584,-0.5456808897496531,0.8379886711749819,-66.14266203118949,-0.3106230552566292
109.079,0.08609270425949796,0.07244723148428894,0.5266091125393324,0.10727079102839873,0.13737907707373137,9.7690552917864,-0.0012812730785522683,-0.002333760135185047,-0.5238026996475176,0.8518354557923157,-63.17564264859311,-0.3047134468158601
109.179,0.04225268549061757,0.060029547131697114,0.5422380952346482,0.1924680959947052,0.3304434668744371,9.797651580918007,-0.001264922086683963,-0.0023359768446964053,-0.5018357078727607,0.8649588808077187,-60.24330627540802,-0.3042771976901462
109.279,0.1263958371122378,0.007057385677686191,0.4932798979949685,0.04737733168518757,0.22656360126045347,9.752405740453828,-0.0011789431851240242,-0.002415689967357514,-0.47953884736687974,0.8775165345456415,-57.310839834166394,-0.30769779956105014
109.379,-0.07720104928307932,0.04932305949230295,0.5000100709680719,0.16135625835636627,0.5721564043875802,9.801761939031287,-0.0013442591713914473,-0.0023009264550545735,-0.4570369321197678,0.8894437258102836,-54.39230675969431,-0.30492048926768234
109.479,0.14590970128569158,-0.022816135544765755,0.4529433318927704,-0.0003090097446697901,-0.03979466223605439,9.802395153765744,-0.0011235947572642887,-0.0024361357762731593,-0.4341330216349054,0.9008447825810213,-51.46049173684829,-0.3073784106359124
109.579,0.025587555145431144,0.06918315906339587,0.5166122136144458,0.2002098083489051,0.3869677058949535,9.842588489187284,-0.001058818205163596,-0.0024429759663917886,-0.41053060301671856,0.9118429331629243,-48.47653591575485,-0.30507713361345634
109.679,0.10691514814623118,0.04951655930564508,0.46735899349632704,0.08753279843194284,0.2266963509760365,9.855273451677446,-0.0009622415926794223,-0.0025089840170191653,-0.3869902559086695,0.9220798885791089,-45.53490636419348,-0.3077785738247765
109.779,0.0256248624111813,-0.013950517139694467,0.4865902869790261,0.0707123402569686,0.3709599798337312,9.706329252532393,-0.0009892499757890826,-0.0025417457765995444,-0.3635191647228611,0.9315827272937631,-42.63312297590665,-0.3125451900880096
109.879,-0.014577855843698598,0.09382384880517475,0.5319879741667586,0.12373354861541233,0.24382619696838564,9.805605495555259,-0.000979866286227261,-0.002429555131294021,-0.3394830026564244,0.9406085413344402,-39.690870729544876,-0.2999915592394867
109.979,0.041872651968955996,-0.007966727300571765,0.5131311475623901,0.12088268946621303,0.19199793361203607,9.757812051860007,-0.000800743537148797,-0.002593128897213245,-0.3152145023066353,0.9490165709975197,-36.747685209333454,-0.3109260426465168
110.079,-0.02026505316275753,0.0733212326795183,0.523303475659496,0.1540120709438902,0.41289693783387993,9.787176475841832,-0.0008710404260678302,-0.002464396133737165,-0.29035275477497285,0.9569161122245025,-33.758235700845745,-0.2992147435923883
110.179,0.0774656261516756,-0.0058224799780204756,0.5085802181112278,0.06298767699298813,0.07539311053652395,9.929725166767954,-0.0006975602472588816,-0.002613371872932127,-0.26551732087212276,0.9641022954095925,-30.795510766055678,-0.3099455690937216
110.279,0.06715581166403717,-0.027055444944519707,0.5050691877858982,0.07836250255456038,0.3175045078532448,9.825538318289311,-0.0006199300889336377,-0.002620000231942195,-0.24019958675170835,0.9707197895426765,-27.79675212528691,-0.30850408661013756
110.379,0.05502280191436456,-0.003459772581279226,0.5089691642272365,0.14799299612893246,0.2838330283241456,9.749699169712665,-0.0005444476323717629,-0.0026497869991520635,-0.21491966915995064,0.9766279834275752,-24.82173300552177,-0.3099566260881194
110.479,0.004990723005693146,0.07204644793155925,0.5102164282099412,0.09895562386262155,0.36215959231067807,9.783761459603562,-0.000506621510164783,-0.002637468009409844,-0.18968791842715915,0.9818407613762612,-21.86922480772651,-0.30775700223714697
110.579,0.09431615593972548,-0.012457405874758331,0.49367539585649034,0.09728272843252125,0.17594223814692247,9.95752339111045,-0.0005704398380222225,-0.002588519019084683,-0.1641483413071257,0.9864321042087987,-18.895552121336987,-0.3033292862029732
110.679,0.014916531390043172,0.06222682603128367,0.49854029317198323,0.12730904084246464,0.32423643496742766,9.663875719522931,-0.0003511017630477165,-0.0026829637483712578,-0.13847627969224177,0.9903620541981971,-15.919435452335692,-0.31005473125976474
110.779,-0.05879569017090768,-0.020053224523178745,0.5273252990766601,0.12186396016131582,0.42107154243223516,9.682843058858243,-0.0005046674335094165,-0.0025942512516095753,-0.11268945703574781,0.9936267415102179,-12.940730927443417,-0.30190295673054146
110.879,0.05839552861253706,0.043651520511448466,0.511503733047157,0.045746814523173196,0.03298026908788113,9.948234770904659,-0.00022095815415971404,-0.0026993609033944283,-0.08743877732655422,0.9961662134643217,-10.032599499956309,-0.3103535544013297
110.979,0.044656139855685555,0.013420960518162134,0.4781341272260038,0.1472674666700972,0.37126592281769183,9.78823118723178,-0.0001566602201907842,-0.0027164122159436784,-0.06130982260072437,0.9981150746356435,-7.030026253739786,-0.31179334421577015
111.079,-0.040207920246581166,0.06657065667896873,0.5056143847801273,0.10492156803318806,0.3268973046250423,9.786434576315251,-0.0001305703849490022,-0.0026891632711010713,-0.03564964903588096,0.9993607226001502,-4.08601879332961,-0.3084933049082923
111.179,-0.0042993171381462995,-0.04443603837901811,0.5100034176099759,0.054864717789285145,0.26981246070571424,9.702846973383418,-6.368356430895611e-05,-0.002714319280990617,-0.009786491212816455,0.9999484251725116,-1.1214597741127585,-0.3110949828137644
111.279,0.0958553777160559,-0.015057477390863931,0.4893985719472485,0.13796653749752083,0.13579845828364223,9.895976353563123,-5.908645128805201e-05,-0.0026781308777722537,0.01611149708738097,0.9998666129966517,1.8463594365708715,-0.30674263469670254
111.379,0.016348816850718192,-0.0002720912800697616,0.4925822193411604,0.1321694433399532,0.35529808151150283,9.74306718806687,0.00010902242548681958,-0.0027198825378818414,0.04180873594555624,0.9991219244675426,4.792344324131322,-0.3119257651356165
111.479,0.07823297737470869,-0.008792562979890584,0.47656882171315584,0.08551956893508597,0.22941276095805613,9.90127879524517,0.00010542684377052498,-0.002682787360823462,0.06713227186834697,0.9977404720722476,7.698632510933336,-0.3075426548610988
111.579,0.017115043394379238,0.03481690574667677,0.5153575547695396,0.06907813778830996,0.26962900564867265,9.775040844081667,0.0002561431023205984,-0.002705902038035172,0.09275848119695769,0.9956849284040136,10.644679181032085,-0.3114597094156896
111.679,-0.005630552427528516,0.04740547372103728,0.5098153048592493,0.1038740464790423,0.32827110893423794,9.801071305472986,0.00030312073630568486,-0.002689518433517841,0.11828605152805734,0.9929758731320297,13.586447417321752,-0.3101414914893923
111.779,0.054305600441871486,-0.023988312428081297,0.5046627437144685,0.14578459315037307,0.19363789003211992,9.764060896451936,0.00038612256848599735,-0.002696650931361558,0.14379819481998568,0.9896032832148597,16.53544656941785,-0.31216480418779063
111.879,-0.01846736528418935,0.037585964193091105,0.48790548113561477,0.06874977199544267,0.25304115693646095,9.770331114948734,0.00021010239263421902,-0.002694521561283894,0.1693907595943602,0.9855452632804778,19.50494569741304,-0.3083859800177214
111.979,0.037694108941317146,-0.009695627829805282,0.5340373094225798,0.13543657165430478,0.23292308874966147,9.901737160299696,0.0004413616245254048,-0.002669031838011979,0.19480806752770405,0.9808376513445463,22.467133559183704,-0.3098419281141599
112.079,-0.023046137132955634,0.013065674774493625,0.5151133811246071,0.17040840637452914,0.39263492648372555,9.779689712373594,0.0005648490593379463,-0.0026577267824375995,0.22027919655824058,0.9754330797125684,25.4509704041958,-0.31133065395110354
112.179,-0.009331209657164906,0.0038349067857513896,0.5346139829474572,0.0914514591539031,0.1935784818768675,9.755567712185758,0.0006291353056773136,-0.0026323485448169343,0.24540253873948686,0.9694174894802138,28.41136494992967,-0.3101133300999577
112.279,-0.020701419742314413,-0.06316092852433694,0.544347411273743,0.044646112514814366,0.28733549174081746,9.73528848505272,0.0007342575673896613,-0.0026480310130520654,0.27039954551356504,0.9627442726828533,31.376211415977647,-0.31488997670825786
112.379,-0.0920697238411011,0.0439699816891544,0.591331265165038,0.16043918330968965,0.3722131134587062,9.895627250294378,0.0006963570086911559,-0.00259172557486081,0.2956083630791991,0.9553054452493703,34.38820081974921,-0.3073060701137986
112.479,-0.03584763891186074,0.006643201776036565,0.5486187979829502,0.06701456963254818,0.16244005128879146,9.860624865990545,0.0008640955614877793,-0.0025823382281676644,0.320289163743051,0.9473159116455887,37.3609726620219,-0.3120401489402863
112.579,-0.058430331957128975,0.07206972151187607,0.5029232632531454,0.16104240413787402,0.43561314250364863,9.679111603613956,0.0007802863897513971,-0.002533684069012004,0.3447157249706477,0.938703382627414,40.32907770552565,-0.30336593064620404
112.679,-0.0019904314494893095,-0.023719995608674476,0.5519309764431062,0.010382225055410248,0.041993255038248134,9.87738388996162,0.0009673840131686906,-0.0025352846561610518,0.36857349575235304,0.929594650763855,43.25551409816157,-0.3109272908275559
112.779,0.018778100034126655,-0.026106009848727053,0.5128003657403275,0.12170414217460851,0.3426573001346366,9.854943758406248,0.0010287529617853041,-0.002504687525080831,0.39241178716737535,0.9197856584551923,46.209493223773215,-0.31025477640629184
112.879,-0.0522648513314318,-0.04640260578286372,0.5332227698987374,0.10121083138282194,0.2960189002564029,9.734663776051274,0.0011385700424312918,-0.0024816301507772716,0.41588691369396447,0.9094122388598926,49.150558458047165,-0.3128756111591674
112.979,-0.0217439308153074,0.045210110246582016,0.5508580107330939,0.16898351288758906,0.21369189241743847,9.785208590217568,0.001189102984441729,-0.002423045205006614,0.4394064367818151,0.8982843081122678,52.13223432071409,-0.3092936300227082
113.079,-0.07837320470727063,0.021452069826383053,0.5183311743630977,0.14396641979312452,0.45543331576164364,9.800666879042717,0.0010366794398028489,-0.002426542448538608,0.4625142999190364,0.8866078950459939,55.09920949692128,-0.30147697286408026
113.179,-0.01452725939878207,0.0032822284643884677,0.517603669223065,-0.019101156082091758,0.12068426403204563,9.74361019530696,0.0013156339018960965,-0.0023738693017650637,0.48525253237533794,0.8743698380406865,58.05827264852468,-0.3110092522135961
113.279,-0.11735037805955464,-0.03645977269654647,0.5245082414729707,0.14735580355679057,0.44425472866561644,9.83508576746948,0.001184049693180958,-0.002371017351400042,0.5073912508293128,0.8617117237713021,60.98072826240804,-0.3029711697142928
113.379,-0.00704585663010656,-0.01422307008491403,0.5197152993528571,0.05796737686428688,0.03850638857843717,9.858281623449813,0.0014382463618925147,-0.0022968794626529506,0.5293183382300989,0.848418972327625,63.9190796458451,-0.3105453659266467
113.479,-0.017970150770450746,-0.015254357954515133,0.5148759614032556,0.12692991146256324,0.33680235610581843,9.7906004993665,0.0015130750581757323,-0.0022521414823890988,0.5511146035062952,0.8344251507862827,66.88729808707298,-0.3109023203629562
113.579,-0.0157272945774732,-0.025547092055728193,0.4923095117342467,0.10773332898333735,0.31287047455374806,9.675597504667707,0.0015397433191679868,-0.002257562887339234,0.5723964583270761,0.8199724550830598,69.83532339426155,-0.31312104627179244
113.679,-0.07367411809438504,0.02756128933061753,0.5316984666043685,0.11271931388545418,0.2493271713887277,9.917910617655842,0.0015894687868815464,-0.002170609153861885,0.5934279475345647,0.8048826207154622,72.80159845442819,-0.3082895405157517
113.779,0.0012513879482800375,-0.07787787927718871,0.49547746649578583,0.029047817845187125,0.2838693055061412,9.857819177306975,0.0015464900143072385,-0.0021648459987447044,0.6141841249485421,0.7891582746646144,75.78567139174707,-0.3046128137750888
113.879,-0.06699275871433981,-0.03738508911280555,0.5364177000863679,0.130914854165745,0.2510833251548202,9.717320905119422,0.0017590237789881975,-0.0020726458132700157,0.6342066005242134,0.7731588438517654,78.72266178351484,-0.3114692905192025
113.979,0.08311789514219732,-0.035914268265424494,0.48928983986327695,0.11646937233834788,0.15408982461383336,9.877501272685357,0.0016387333087914291,-0.002111198112724086,0.6536347771166571,0.7568054145811389,81.63282101566138,-0.30583477757856065
114.079,-0.06027384521310169,-0.05459126082663319,0.5446733303876881,0.08304848558073064,0.2847743191400438,9.73924039460389,0.001850572344635558,-0.001986923836918575,0.6729479996244413,0.739684809440566,84.59037964012576,-0.31112177564140897
114.179,-0.07717398608236123,0.0353387035467178,0.5057542813754323,0.1761801267963623,0.3015304669549661,9.789659520250522,0.0018965402919703016,-0.00190095424921095,0.6917742155463992,0.7221088728253015,87.54181503340443,-0.3076424118631964
114.279,0.016093364178296977,-0.07720393132364116,0.5152043805138015,0.037489762425375356,0.2689285392529593,9.785172941507907,0.0019353914981055413,-0.00188985893915086,0.7101526806239356,0.7040425078754677,90.49509493418422,-0.30996760973155707
114.379,-0.018418507140719066,-0.007673419839346532,0.5483352938860189,0.17535551173076702,0.231237584295707,9.684777332633981,0.0019421941739410742,-0.0018818417175186953,0.7280582287462651,0.68550995770185,93.44816617209456,-0.30986300889469315
114.479,-0.027151821140568255,-0.03803776841939074,0.5205741467963627,0.012003481598350282,0.24607966490807767,10.018544713221953,0.0019409992189542747,-0.0018096615661255336,0.7453488754556172,0.6666693419560369,96.37861467178617,-0.3040320236016088
114.579,-0.058527846012551565,-0.0056983780010918285,0.5509272749889891,0.14203033392362122,0.3012538168527936,9.718155786629296,0.0021089715018476228,-0.0016536403392780768,0.7622200030775608,0.6473125092420784,99.32105495667466,-0.30686876322834
114.679,0.034977807637487826,-0.03451980843708773,0.49884857738076804,0.12830741432789347,0.24740519659007018,9.826487983792935,0.002085866090360615,-0.0017082627664064946,0.7788001781452124,0.6272663019180605,102.30222736767736,-0.3089413200321887
114.779,0.0775314730553745,-0.017417167738262622,0.4401153248223506,0.08517477539068495,0.33545200128469627,9.684451570804645,0.0021772573531540747,-0.0016386372839044976,0.7945098360382132,0.6072451686566155,105.21851617575206,-0.31225288203578777
114.879,-0.12344922861331223,-0.026232921490824603,0.5421478702344786,0.10993932070381446,0.27995671256835886,9.915945106068207,0.002188231256960029,-0.0015279611525027723,0.8097378708289248,0.5867856998292665,108.14120606267277,-0.3057866746877171
114.979,-0.025288126812173267,-0.29990204587120084,-0.45039423406780704,-1.6922448056732053,1.6812378957832987,9.3134297846272,0.0011909941740804505,-0.0007620242894972893,0.8119126499044037,0.5837772261548652,108.56659817558294,-0.1617846645725627
115.079,0.0803407492082753,0.0032792063986308226,0.2926305423545981,1.723678848935395,-1.3392057353614082,10.217766651706643,0.002140092155579747,-0.0016032942251650295,0.8191712567687689,0.5735427634772049,110.0044499174631,-0.3062657095522271
115.179,-0.04268125195888307,-0.012295553774925796,0.3397191568505131,0.1519370325143322,0.27539059314371556,9.829400184661775,0.0022475107939184,-0.0015316164737618604,0.8286053226559402,0.559826600040096,111.9121033883339,-0.31166067475397524
115.279,-0.008620308813116118,-0.030162683627069906,0.3466549099187759,0.07651520676162067,0.09794375102170234,9.707419736657826,0.002289826779387854,-0.0015051390308362768,0.8380719776846148,0.5455527943926386,113.87482824544998,-0.314002206209009
115.379,0.05934360132598449,0.04191914409012399,0.3065756959229153,0.0486775665663721,0.11085027096905244,9.891592508499583,0.002267661380401938,-0.001453377070877002,0.847092692553591,0.5314383460282682,115.79436790163979,-0.3086309030655373
115.479,-0.023570517309588056,0.015515912108575267,0.38817102457075303,0.10446876797698587,0.1902179830359315,9.733728587318064,0.002313810082106161,-0.001426821492749173,0.8559736520406172,0.5170122991531055,117.73564215012155,-0.31148943541028845
115.579,0.0923377905256555,0.047080084934425885,0.2973702953468921,0.07677627788763697,0.1796731242001657,9.78156272210228,0.002329679696212857,-0.0012834083490298148,0.8645776055796169,0.5024922779364266,119.66969537629052,-0.3047108973868085
115.679,0.1482137441412002,0.021795414685464885,0.2713821463252757,0.06802520487874991,0.05000351455291878,9.74236840323781,0.00239644062749459,-0.0011860332128358455,0.8727754120417075,0.4881146694506984,121.56625087432613,-0.30601531018383965
115.779,-0.0010899863370682043,0.036468616473511906,0.38329413091194975,0.11400390669146877,0.2548569574003996,9.825463150256596,0.0023622285929898556,-0.001278718943710105,0.8809531022408762,0.4731959598370572,123.51587260808684,-0.3078055515961251
115.879,-0.08178260726281814,0.07122944618567656,0.37730901189699534,0.06512765466682476,0.2828144734607312,9.862276403703495,0.0023349200501237774,-0.0012984216049008043,0.8889220479156988,0.4580507122350706,125.47702541055367,-0.30599585086680386
115.979,-0.08838551354360198,-0.054257981782143805,0.34621033808957036,0.006033142113593258,0.16904136875812165,9.879545397549453,0.002465526315885606,-0.0010790465163766948,0.8963557236233719,0.44332738869397903,127.36700569463812,-0.30806479058108677
116.079,0.01786976348620581,-0.013795231939743142,0.3512564415379359,0.11874060405329134,0.10096179950002088,9.584940363955031,0.002424507570084752,-0.0010602289894428222,0.9035873339606476,0.42839576046387495,129.26819718642477,-0.30309057943114104
116.179,-0.04854648934435828,-0.0034965958033479835,0.3571809159333172,0.15900358666894168,0.32771457883755467,9.856705822697284,0.002353032705277061,-0.0012631640674800144,0.9107468277744036,0.4129565150866217,131.21848074295198,-0.30534771747921163
116.279,-0.04739483168693848,-0.07905700040867591,0.3742340058259838,-0.05643769349162052,0.10698593082458274,9.808700618791717,0.002515611817338466,-0.0010785632794098332,0.9176443254454899,0.39739325658109553,133.1691726379716,-0.31364447137297874
116.379,-0.019423459952817735,-0.0790981658527732,0.3698610142514659,0.09487098967590493,0.17372551456488536,10.000773869520659,0.002492158255753588,-0.0009964241771712877,0.9243412029948499,0.3815575143174631,135.13943624806774,-0.3075420384674814
116.479,-0.14698460613038816,0.0011390957993109158,0.35442021539247515,0.20990224779877503,0.3360424968027826,9.655294781857991,0.002336016310263155,-0.0012063847014159267,0.9306731138298725,0.36584237433348227,137.08105857476522,-0.2997057593672212
116.579,0.033060977640496675,-0.048625693177685766,0.34082965973287793,-0.06964420960159416,-0.0070876700507617706,9.851282846714243,0.002563825347509136,-0.0009831349353505601,0.9367094603656655,0.3500969110214342,139.0133604022435,-0.3146415794270713
116.679,0.01877950742797671,0.036777760674327545,0.33155565324636993,0.12200660178144983,0.15070416440144252,9.811842992634075,0.0025590442486347143,-0.0009059599304011064,0.9425129073200195,0.3341587198687207,140.95707338825582,-0.3110794114537187
116.779,0.11043885341908492,0.01805211749071011,0.33012056138855767,0.09480277306733038,0.15174000295798717,9.768320160750644,0.0024821040296040616,-0.0009426789988661149,0.9481312374105051,0.3178680656535279,142.93180960354843,-0.30401373960917444
116.879,0.022226984986779684,0.00975513456128827,0.36445856652634084,0.0729368435356363,0.13951370795041862,9.7715755696025,0.0025966336450724357,-0.0007942137015275848,0.9533838618123666,0.3017479722451306,144.8746167405775,-0.3111452270408114
116.979,-0.04291404964241158,0.023161303406373217,0.3329436286571424,0.07445977094313058,0.2753406278606702,9.871585265544276,0.0026046523425376214,-0.000775359176406523,0.9583882402325324,0.28545506754708616,146.82776968672133,-0.31141536857753677
117.079,0.16455949317272828,0.03160877257951083,0.2861428573197728,0.014017168834264342,-0.04337263919484022,9.721288763939116,0.0025535819702415725,-0.0005924334716793638,0.9631254153866627,0.2690400759700521,148.78554753509002,-0.3000946684023035
117.179,0.07122765581829152,0.03156395794902333,0.3441592976058089,0.19335823591434648,0.251620096633595,9.836284478835061,0.002623426005612595,-0.0005527636309915922,0.9675833186534375,0.2525377863844572,150.74438077947156,-0.3068750203020846
117.279,-0.023027395809806946,0.018986137835217968,0.36956613490867435,0.041969965914235824,0.27290657887302305,9.771696602548642,0.002639232622182678,-0.0006378462106928525,0.9717581542830322,0.23596338103149042,152.7030613532163,-0.31114100816346985
117.379,-0.001744854365759262,-0.041272035215063715,0.36810107287964733,-0.013954098535534476,0.23487693106457017,9.938168980126711,0.00263371905257191,-0.0006386606398186817,0.9756248469438634,0.21942837934575,154.64899700247005,-0.3105059148194412
117.479,0.09193607235941068,-0.006384508095996375,0.3432118800139669,0.15775987116483903,-0.026975741849240318,9.576076442624482,0.0026230605759733788,-0.000248976782145032,0.9792224840318438,0.20277175427135435,156.60164983220287,-0.300121862477406
117.579,0.001209373818187866,-0.0043198066284722576,0.33841497574095725,0.10709135593619433,0.3792137668464869,9.805183836331956,0.002639337930108035,-0.000499474037764896,0.9825406663087461,0.186028555524525,158.5577109970299,-0.3078142649319797
117.679,0.058229072652454014,-0.005484938138544731,0.2942097676420024,-0.00581064021196194,0.17287574503745162,9.934566266373892,0.002682665623913901,-0.0004512910034567137,0.9855877010185382,0.16914338072349402,160.52389014234666,-0.311728981644542
117.779,-0.0915789118834487,-0.0008140431310422695,0.35697902875622245,0.10314501270738227,0.23047675132476345,9.79666101385189,0.0026547474787051183,-0.00043576756447999795,0.9882818605783975,0.15261627198354344,162.4427959881317,-0.3082692821060932
117.879,-0.13111230290437537,0.0192209951321812,0.36531677794471373,0.15880642193385944,0.2744738750678928,9.803364059141009,0.0026174038983578095,-0.0004828980153445793,0.9907050257251654,0.13600172061131746,164.36688455137397,-0.3046717614183797
117.979,-0.025763139633205354,-0.051279672901920585,0.34584768386253334,-0.0478614804365468,0.03565177034619066,9.75216615687508,0.002719138482748189,-0.00032950148348349456,0.9928838123081343,0.11905558773593883,166.32474751171236,-0.31386986402853484
118.079,-0.028443825440561607,0.0304410291459141,0.36533642288704093,0.16104093549770235,0.178999770416528,9.841753565606245,0.0026962321684244,-0.00030104289309755127,0.994791619232246,0.10189344439441006,168.30353674104393,-0.31087277881371533
118.179,-0.07261252207402855,0.0734025300613006,0.39236141471578284,0.1679992078101118,0.22466954037149825,9.735779330054951,0.002593352451514439,-0.00042758225988475724,0.9963629335961746,0.085170395397098,170.2283810882332,-0.30026994599296175
118.279,0.033352783649222825,0.02787821241361743,0.3363794615808461,0.03566450792399796,0.0617966828008292,9.73795355825537,0.0026903363096303784,-0.00013682320313379608,0.9976726379551727,0.06813259752511146,172.1864835319504,-0.308642058947135
118.379,0.0493697083711241,0.018548709665222873,0.30232287918815276,0.00687946258607465,0.25505241086221436,9.964533054098682,0.0027121669960815924,-0.0001459089798743049,0.998698580013671,0.05092905987186809,174.16141459797242,-0.31124003561684566
118.479,0.011324512955895382,-0.07019981850310383,0.37165552827945275,0.021826750028591572,0.15634880076626462,9.93709840401746,0.0026406783410066713,-0.0002771778059144041,0.999421732237487,0.03389913157860795,176.11474449468403,-0.30350259607698005
118.579,0.04174464661060049,0.09486768100139166,0.3474036158730252,0.15757844869294002,0.0786205005492566,9.528280417559218,0.002585594519563251,0.00012594369354017158,0.9998543067369564,0.016871992731350604,178.0664636428951,-0.29600195862157985
118.679,0.06589365066651919,0.021707119382446786,0.3324305059857068,0.06203778340326575,0.19034144806947223,9.866730802376665,0.0027055567480334043,4.6031552567022656e-05,0.9999963120518962,-0.00023178952965567743,-179.9734528561266,-0.3100355580460493
118.779,0.008091464759241909,-0.018395298525457595,0.36162464907451414,0.03857088106872393,0.21767782128833502,9.858344664635068,0.0026744082645083806,-9.593695841770183e-05,0.9998504562702732,-0.0170851816689589,-178.0420367552341,-0.3062324135712696
118.879,-0.009236999510429498,-0.06596318495117832,0.3764244000343547,0.057384071020620916,0.18259572178556802,9.79040666847536,0.0026747419381948426,0.00019071157953492966,0.9994222264242362,-0.03388248388002485,-176.11662680208224,-0.3070676950783151
118.979,0.09204228064523148,0.09411421318189304,0.31894882302827954,0.1572269603258487,0.09718188737296615,9.671785653395823,0.0026284401420874053,0.00029986497649359616,0.9986985322074754,-0.05093371329531363,-174.16092950715472,-0.30255664555547473
119.079,0.11342744028791825,-0.03441112977164596,0.29174718386298165,-0.04152191439366465,0.24728195009113796,9.863226027311176,0.002692868907291068,0.00015831645014278758,0.9976609172366578,-0.06830386234657858,-172.1668184634257,-0.30909890154469205
119.179,-0.0047027102476333675,-0.04221525083130797,0.3333730395898799,0.10741863223939001,0.25972037356369526,9.802271944541545,0.002708849930576193,0.0002512715668308808,0.9963709495506402,-0.08507367328503485,-170.23944723271288,-0.3117359537057392
119.279,0.0010919203034153876,0.02273707242691547,0.2943846632443659,0.11147693680801332,0.21981728249775717,9.837312659185754,0.002689853182550464,0.0002700390592231211,0.9947814282808205,-0.10199314543798377,-168.29204280898486,-0.30978353132523495
119.379,0.019122706974707044,-0.011737522604239058,0.3419714960831033,0.012923692304849695,0.04029635909111223,9.847120330960788,0.002707849456780417,0.0003117681311877035,0.9928988502147268,-0.11893041492496847,-166.3391894753265,-0.3123436821716342
119.479,0.020229170923260358,-0.014326475660484544,0.33476177746791774,0.1483554756312045,0.2060827590879103,9.693791080660676,0.0027047985416145627,0.00037080361265880217,0.9907590683696177,-0.13560610241761745,-164.41260312386459,-0.3128464704901467
119.579,-0.005542309754327044,0.006628096194230679,0.31389786294200916,0.0933054378622025,0.27928386937763444,9.722479542227541,0.0026636869449286815,0.00035582853606224655,0.9882827446414634,-0.15261059858950896,-162.4434292096261,-0.30788368188549536
119.679,0.0527623953421048,0.05474766290377667,0.336556608659519,0.035935365063671065,0.0010675756972022988,9.91965772822794,0.002629689462383504,0.0005362299227179728,0.9854926234972163,-0.16969704247091386,-160.4595443272406,-0.3073974799149826
119.779,0.03426714193555936,-0.002199439516875081,0.3374508887440383,0.12119314444269588,0.21410037761930292,9.777479998751343,0.0026583402760512165,0.000538952193405461,0.9824319495702294,-0.18660146628884794,-158.49089890399406,-0.3107976317296165
119.879,-0.06869693492652412,-0.028744213526038388,0.3431825841538693,0.0417140659757011,0.3752039656264161,9.69671164545666,0.0026473670785723707,0.00039532360175957495,0.9791523581933321,-0.20310956307184988,-156.56215470654968,-0.3062439300561911
119.979,-0.10128022441283584,-0.002042001537251776,0.37487049129206823,-0.00441965369323262,0.08922727152048457,10.035396291437726,0.0025652843025647278,0.0007318360348188332,0.9754875698976371,-0.22003837098939766,-154.57738020585867,-0.305208607776972
120.079,0.09703296472137324,0.07008226606012431,0.3204946147496767,0.1735029884600122,0.011585451475446807,9.628916410897274,0.0025487905308577826,0.0007811814609140837,0.9716407730556527,-0.23644682606913703,-152.646101459858,-0.3049544079455172
120.179,-0.07109308723747704,-0.015081785557169724,0.35249940034773714,0.10030215055278137,0.4427526633416234,9.730599526679173,0.0026110678307991147,0.00041299986976408497,0.9674984229547762,-0.2528632304940985,-150.70580010672595,-0.3014501273466931
120.279,-0.09408583901485942,-0.01282121361509243,0.3704025966244584,0.020291739115268513,0.11281422374930124,9.892508031013783,0.0026008510107399033,0.0007394422792548106,0.9630668155788491,-0.2692489508428039,-148.7607266632479,-0.3098441780483064
120.379,-0.09764064946724509,-0.07541115019177645,0.3706111324819453,-0.012288444555658029,0.15663258910214195,9.913681565853807,0.002514722739622659,0.0009077294205836895,0.9583314172389562,-0.28564619186961954,-146.80496740901023,-0.30587236589354283
120.479,0.1284017007117006,-0.0002799818644469501,0.3075976246116051,0.21509798121596418,0.06706986014576775,9.743791504846321,0.0025437980823681304,0.0006967981470182178,0.9534155965769942,-0.3016483776972666,-144.88657191242444,-0.3020057101213743
120.579,-0.07475799714230855,0.01871615140837046,0.34449639067434845,0.10754860452575363,0.35932897808117775,9.8214816525747,0.0025838485027621207,0.0007562613696434321,0.9481531020028588,-0.31780252824358074,-142.93966262099426,-0.30827865004688526
120.679,-0.049799310404212295,-0.037780977438028995,0.34294761548922365,-0.005208419958265265,0.09513583947192085,9.76280833884223,0.0025716463152237676,0.0009176078638215334,0.9425290391651525,-0.334113087084975,-140.96262182700576,-0.3128864876947778
120.779,0.03876896448850907,-0.04560112814329857,0.3306799218831499,0.03225129415170614,0.10037724891463318,9.784031675093575,0.0025502227143583884,0.0008463153013771868,0.9366083509735647,-0.35036777391920293,-138.98019131364532,-0.3076891540177899
120.879,0.08215437249829169,-0.04568708427953683,0.3280880324787354,0.07310827830453728,0.14345762745101076,9.84714876464989,0.0025184950450490825,0.000919480668010848,0.9305030439945127,-0.3662743464330468,-137.02775889823275,-0.30713543816204564
120.979,-0.1113353080795835,-0.05435656866829024,0.3478770336192457,0.1189705903211242,0.3115049399380188,9.753156767788443,0.0025327390023481555,0.0010321571539648482,0.924090281851537,-0.38216445527063686,-135.06418114077965,-0.3134018306332532
121.079,0.16616506876326428,-0.009004428508222341,0.3135049006188117,0.07368126630785676,-0.12675631196735754,9.747404292406188,0.002416453957407435,0.001145334372223055,0.9174088114319985,-0.3979370825474489,-133.10129210725364,-0.30626426456796274
121.179,0.11662866302385311,0.002390131959130841,0.33949228662295644,0.09759408505191897,0.2400178497832517,9.773387395703605,0.002407022948470093,0.00115268082240156,0.9103341228196076,-0.41386551245266,-131.1040453269375,-0.3057603744714427
121.279,-0.04045102945059805,0.03417206460659121,0.4011635453135141,0.10901332215822879,0.3319904177887038,9.916748131808175,0.002465942713741244,0.001114470385684122,0.9030755551790013,-0.4294731874290066,-129.13152027193877,-0.31003673771168994
121.379,-0.02668931724868152,-0.029652194411460074,0.3154170494273355,0.01051212816459706,0.1962192789895811,9.804473151224713,0.0023969091659925426,0.0012769255092851435,0.8955779223248286,-0.444896402920991,-127.16639239321927,-0.3110853532767515
121.479,0.20726491635786556,0.00458211882503666,0.2973785946662769,0.07777259231429749,-0.00946343267719115,9.701846107527883,0.002234812674597151,0.0013802799927158662,0.8878269163044293,-0.4601700415333655,-125.20369321983603,-0.30014993723561956
121.579,-0.008793943209483103,0.07837019723304661,0.33631405646576995,0.14987142229567607,0.40942107095817254,9.81759010951094,0.0023539615540524436,0.0012212522808535112,0.8799296330874381,-0.47509663040530514,-123.2684855322244,-0.3038447668438903
121.679,-0.02259600920377406,-0.019361843946362332,0.33858623922001685,0.04506746307275954,0.1785899187190391,9.799763159114065,0.0023856104038410095,0.0013347473198259173,0.8718026002452999,-0.4898497254445765,-121.33834798795736,-0.3132498440129521
121.779,-0.03438824580322429,-0.03288377564082117,0.31268707312305816,-0.002802020641961625,0.17070136193350557,10.009866918808756,0.0022567456544332586,0.0014529441392111685,0.8634746551178688,-0.5043850870331685,-119.41871148569405,-0.30727713785536176
121.879,-0.11538148809749156,-0.03089761037879072,0.3535678082068562,0.14823262015862304,0.30153821137443043,9.71129563398201,0.0023005382849909314,0.0013224658596660813,0.8546376059944657,-0.5192181824894982,-117.44008871564962,-0.3039870322462294
121.979,-0.004421698907614683,0.05893875355784797,0.33786575724739726,0.09455203138977158,0.030554529494280953,9.714605985973007,0.0022891130607567466,0.0014357864000194918,0.8456410159179218,-0.5337452301202452,-115.48202165078726,-0.30964073817407994
122.079,0.017622903954310286,-0.0420445820487471,0.3514436843333163,0.04402448609396032,0.11545083975453585,9.80022123740457,0.002289833492529739,0.0014946417618990839,0.8363816346938344,-0.5481407518652937,-113.52060954318378,-0.3133463060396605
122.179,-0.06020289007286804,-0.015224393268327769,0.34686980617361957,0.14056063230185634,0.3078893337630788,9.72344827722868,0.002294614354067947,0.0013855522034785536,0.8266847828517283,-0.5626589418035125,-111.51991218778113,-0.3067076180983717
122.279,-0.012558589663362874,0.07627102204183381,0.33779964670021484,0.08538917025376233,0.12478203797890432,9.849962455135444,0.0022128173448933875,0.001522549821873346,0.817037947180624,-0.5765776427752903,-109.57931745273493,-0.3077742313384032
122.379,-0.016825549554855473,-0.014147031388605711,0.3475957930485414,0.026109152406016134,0.1302283228278523,9.835492405311408,0.002219059641010893,0.0016034816076244492,0.8072609899293793,-0.5901882739933776,-107.65894158203156,-0.3137207494318256
122.479,-0.013117882941558655,-0.043414673539993974,0.34002884086818025,0.024867689699688854,0.20405479557264547,10.00843578705202,0.002157986350421909,0.0015402984603418413,0.7972057196188272,-0.6037019224605734,-105.72869038383583,-0.303696578740808
122.579,0.048232407408318474,0.015562066346369332,0.35127571332319674,0.1645926606888987,0.07010379021914809,9.437622476795921,0.0019700683736309107,0.0016945087359587837,0.7866526931807474,-0.6173903042502561,-103.74811084638075,-0.2974733295189966
122.679,0.04027237365435156,0.04096175528062744,0.34028254593237484,-0.006715437547387196,0.1916726002165658,9.880718516658066,0.0020628174552132154,0.0017324051464989393,0.7760498990095047,-0.6306657575958062,-101.80115950425191,-0.30864444692389986
122.779,0.02813675030118724,-0.05373130406459678,0.34601844669141796,0.08615813220086514,0.2757204099676415,9.9245562484504,0.0021049138229798704,0.001694849433787743,0.7651554976974438,-0.6438398567707437,-99.84213472641622,-0.3096047517507738
122.879,-0.16926518049585015,-0.016985072649950042,0.38309777597014993,0.11147728230509839,0.29345301033045845,9.74632405418142,0.0020224409982019325,0.0016182369521220744,0.7542105596421483,-0.6566275373191814,-97.91328553583291,-0.2965557190759808
122.979,0.09054142887484233,0.07605523375730333,0.3227045565875254,0.07831620102050071,-0.08720853418944507,9.7621246645399,0.0018703869005862043,0.0018889269132372345,0.7429076774110358,-0.6693886139244516,-95.9598906903667,-0.3041218057334473
123.079,0.0577334027583391,0.018108887049072972,0.35302550794664533,0.0008998632284804298,0.25278163926088015,9.809697860555493,0.00198004869086196,0.0018273749908027125,0.731398958727585,-0.6819445016128728,-94.00804639872055,-0.3087539975993306
123.179,-0.018002634469885898,-0.0655791179669579,0.32445265493947656,0.06292558475680146,0.30099675449276636,9.902673750587756,0.0019933079665108355,0.0017672409096421348,0.719664700617322,-0.6943166584983382,-92.0539960997174,-0.3049912502638128
123.279,-0.07730493993694658,-0.039508409502612446,0.3833550173236929,0.06135049665958178,0.12307995113257408,9.731445664374771,0.001897969427838056,0.001944023981283731,0.7079418526508121,-0.7062654966428326,-90.13584423353858,-0.3113065822923292
123.379,-0.04387386660848196,-0.005002572185378178,0.3749494387971666,0.16551932632413863,0.11009130717629913,9.913089728231471,0.0018905115173147773,0.001957306809442632,0.6959393738093357,-0.7180953856543897,-88.2046536315974,-0.31182973877531667
123.479,0.04827156667304279,-0.050169758475008465,0.33826332047819474,-0.010706166030193004,0.2048024404357437,9.670961262956501,0.001937438715498702,0.0018835563065632583,0.6837055766470461,-0.7297529602602473,-86.26813881450231,-0.30930342245705966
123.579,0.0152670665681349,0.027516123074150835,0.3073634502175531,0.19220954219681544,0.23489909296821831,9.822640489141621,0.0018286574862553526,0.001992370057284269,0.6713679899737701,-0.7411192269209674,-84.34584396696488,-0.3098898433247753
123.679,0.052170517789849366,0.014615389801890345,0.2796108259982178,0.03011927729555091,0.13874022715909157,9.657630877576496,0.0017547029464709827,0.0020670925938789104,0.6588459684021909,-0.752272981081972,-82.42422005383884,-0.3106703392877534
123.779,0.09204403732562486,-0.008598371268263447,0.29737444776611344,0.0438066936983796,0.07928269425108726,9.936960283635868,0.0017696148535711698,0.0020271529812220827,0.6460604456674846,-0.763281507478068,-80.49079986003197,-0.30831770296507804
123.879,-0.07365492277335102,0.034633735000019074,0.3582453936594342,0.07939460887294836,0.32646932187548094,9.849530949786443,0.0017490129863750568,0.002052597849709729,0.633114250077079,-0.7740536636080079,-78.56084767264682,-0.30895706282395097
123.979,-0.11484855957986001,-0.027492899460359217,0.3790551051033477,0.10193314233461259,0.16493220804980432,9.898482981649185,0.0015487622994012256,0.0021611545750445274,0.619610999666247,-0.7849045418640646,-76.57582365290145,-0.30434861333088836
124.079,0.07487977464291232,0.05111513362597761,0.3363993500632303,0.07992706122046393,-0.04175382324991701,9.650611896181102,0.0015518872951585912,0.0021701539809761486,0.6062767560574422,-0.7952492547258293,-74.64188054149729,-0.30558121574592145
124.179,-0.03912881032395679,0.03477136097502984,0.3432337774967989,0.08408236562339418,0.40445904365292734,9.810579974327515,0.00165548036348312,0.002126816420882188,0.5929231743190352,-0.8052545221183905,-72.72972638251181,-0.3087342113239855
124.279,-0.12564306637065384,-0.007722464283269191,0.39785418489143,0.01794784117843866,0.16145670486408412,9.708790254453355,0.001575308985904714,0.002161669281469293,0.5789157869388367,-0.8153829512692204,-70.74892280421362,-0.3064834066476772
124.379,0.11100358137856497,0.08260260214847046,0.34048823348029156,0.17972848557482907,-0.10276490041416082,9.824631215499313,0.001277165392929617,0.0022949349078442106,0.5653916305141063,-0.8248184080553297,-68.85932656463378,-0.29965865749755494
124.479,-0.017157830847594858,0.07936703450715407,0.3400085284673902,0.06804290871116678,0.4510637602911934,9.80658531333383,0.0015098497983059413,0.0021764419622115087,0.5509916971531998,-0.8345065207188068,-66.87039533118721,-0.3034593146370368
124.579,-0.06833009478538729,-0.0018413262992292567,0.3524717579524712,0.0686788054673116,0.2758390083635218,9.826810567036498,0.0015628289109140675,0.0021783935922487347,0.5370334733718447,-0.8435566730488976,-64.96406052867744,-0.3067504511964164
124.679,-0.05152021561172809,-0.017677599964192207,0.35703705512902056,-0.000606713295237829,-0.019276746471276883,9.769513593828574,0.001366903216065842,0.0023522574631943865,0.5225820082423667,-0.8525846838419043,-63.01149465820211,-0.31166968907854836
124.779,0.010128260785159857,-0.05694639034220901,0.36024776425895677,0.11036158903182611,0.21445184927318223,9.954668845772696,0.001428001503192805,0.0023105975718942322,0.5080398042382286,-0.8613293094166423,-61.06693203015421,-0.3111940470717061
124.879,-0.08068715227677835,-0.008535647806584893,0.35657046994594577,0.13839097326766206,0.3057709729289084,9.597211395378467,0.0015193553639721964,0.002179606695310578,0.4935315545765532,-0.8697238328982266,-59.146086859166616,-0.3031540375004204
124.979,0.05151852774516248,-0.05166196830105481,0.3256155753286281,-0.026947481965074654,0.00786952648795884,9.863080773035202,0.0012993674979124336,0.0024010565063290914,0.4786419490741896,-0.8780059402750187,-57.19372158486878,-0.3128449522857536
125.079,0.08370507506015999,0.031227523691235725,0.32162752323482535,0.1172831311089728,0.16262456312307152,9.762355338698418,0.0012102067470098638,0.0024055038705602847,0.46371765212220495,-0.8859789433508157,-55.25475524198912,-0.30853009741950965
125.179,0.10954145479120837,-0.0008970243333600442,0.3511981359925561,0.10035453058402309,0.08965114049293527,9.938903485810673,0.0012916674960472912,0.0023074933294910224,0.4488221209762774,-0.8936172059623573,-53.336440406351144,-0.3027230506812368
125.279,-0.021853103158266704,-0.03104254533067008,0.3463553183898479,0.05796624295037478,0.32625569105160146,9.649885756967981,0.001206668410507409,0.002464890290076544,0.4337168468333555,-0.9010450405169192,-51.40754783711729,-0.31447858511699106
125.379,-0.03927518724441173,-0.033986172745990646,0.36648790769409423,0.06699624323191822,0.17412400119623445,9.934872706195515,0.0010624909795824181,0.0024794395639553468,0.4186230151020094,-0.9081560960095296,-49.495581073993634,-0.30899778941195083
125.479,0.14761765669308424,-0.003059375474378026,0.28397291226364785,0.0550433282552539,-0.036162442832238566,9.703518130613741,0.0009813505093511452,0.0024270188283477463,0.4037445665229882,-0.9148680077114669,-47.625156140707006,-0.2998435689727468
125.579,0.021805777273649577,0.030519273185363953,0.33251685848949203,0.11508974956960523,0.3526769944626339,9.756347649887514,0.0010277979713943074,0.0024992865534175356,0.3881709242919279,-0.9215834366634441,-45.6816568422037,-0.3096579664547556
125.679,-0.06073509873870406,0.034796081435854755,0.35103033009873186,0.050282612116594405,0.25238504172346166,9.922825627024286,0.0010105709379894994,0.0025094585325523577,0.3723238007218709,-0.928098954196304,-43.718174431348196,-0.31000439011580483
125.779,-0.04629776364359596,-0.11917662241004329,0.30234052443079223,-0.007902423266469775,0.12662354977470702,9.81349100908176,0.0008789276915424906,0.0025411849759686984,0.35667127016069494,-0.9342260834011151,-41.791999378473314,-0.3079696832600913
125.879,0.0560900292119645,-0.0174071316981282,0.3484497749599604,0.17629936283350892,0.03701775876501552,9.626378149360288,0.0008015538607037941,0.002558904370116241,0.34060176692422395,-0.9402038320959608,-39.827267843250205,-0.30698106616722126
125.979,-0.010106395113312804,0.04433744198734184,0.3361067027579089,0.07932053628400829,0.35874987549693277,9.92285393497776,0.0009121922312176913,0.002538998309734076,0.32425155654760407,-0.9459670446000602,-37.840604582720395,-0.3091223689864854
126.079,-0.07808452944736459,-0.010633696593435556,0.37789819921196743,0.038482883052469115,0.16393171734089043,9.884259205296797,0.000822256638575695,0.002582407208868175,0.3082433140375762,-0.9513036920028011,-35.90693321529077,-0.31055709291869094
126.179,-0.06653576615879245,0.022329734484866626,0.3902746027579259,0.13717434448717314,0.13933590335202337,9.783839341257881,0.0008165961539584329,0.002585935190916065,0.2919367030738141,-0.956433796720035,-33.947998986861464,-0.3107360392447008
126.279,-0.06840997978666244,0.05823995334423143,0.34888586773259544,0.051436699878556945,0.2983142439059591,9.73991991363107,0.0008700497054373016,0.002524672935105123,0.27581350833903534,-0.9612074581784067,-32.021074080348114,-0.3055834371673328
126.379,-0.022408685335960826,0.009933367649219111,0.373177298278395,0.08439418156986583,-0.013814599005976948,9.871534436178043,0.0007044965077244092,0.0026333928278166607,0.2594907548749376,-0.9657417444955563,-30.079810323036774,-0.3123767295711296
126.479,-0.005857784502158896,0.007776356673217465,0.35855781377723767,0.10715109170487427,0.22181885932908055,9.589360233032973,0.0006496761625547478,0.0026142896946606425,0.24300112635988394,-0.9700222657228565,-28.127580171959618,-0.3086872326143803
126.579,-0.03272850791502832,0.03269240463930331,0.36987119734162166,0.13927922591854758,0.21660647105855613,9.748172258310358,0.0006722465400478697,0.0025190217852659323,0.22663462724419325,-0.9739763592345148,-26.19810310698583,-0.2986065585797734
126.679,-0.021635564499994993,0.015493565945243539,0.36901524889496157,0.010724631359628499,0.1376891541548807,9.933886293006438,0.0005705269158864741,0.0026456657210798588,0.21003090246755846,-0.9776910017794957,-24.248415928230497,-0.31014034353799136
126.779,-0.09499322334306425,-0.010682330451414198,0.38272902438837875,0.0377861247515147,0.2323982693966972,9.781934527379441,0.0005850964593771726,0.0026367275798668734,0.19324558731288724,-0.9811467007098886,-22.284570109359873,-0.30940832452031863
126.879,-0.02888998342725559,-0.04724560366078443,0.34930209263934986,0.0384068174580206,0.15327570705500868,10.133649893613306,0.0004924264083434165,0.002504002600016484,0.176513239910302,-0.98429495763393,-20.33351714164253,-0.2923927374846428
126.979,0.09974448021444886,-0.024114450210613807,0.3277035709857106,0.10916342073835113,0.017790171406215867,9.471959985024762,0.00034919072726682227,0.002661840104164969,0.15927297397550794,-0.9872309316639613,-18.32949010954413,-0.30750420427801045
127.079,0.02269324621300211,-0.03605616428392735,0.3324002106103144,0.06672096771253541,0.31434560651897436,9.873857284767151,0.00039189689110560546,0.0027014000729651062,0.14266071066334932,-0.9897678871773425,-16.403739744025465,-0.31279838895886675
127.179,0.013869852759396279,-0.07464666635385037,0.33255336318614426,-0.0030760814410749904,0.19671699382703434,9.911023269188911,0.00040592138367410193,0.002618105901110302,0.12570400099434823,-0.9920642544126532,-14.44285413844472,-0.30348057264674533
127.279,-0.02875616104607283,-0.08432483665924183,0.3267564742868581,0.1407686792880105,0.18434257342139254,9.811870786803397,0.00016663814499184675,0.002678308823816021,0.10861213429842756,-0.9940805818326366,-12.470718306788742,-0.30717030108823995
127.379,0.027928329451573607,-0.013603980318173793,0.3455374287934321,0.11941110961166214,0.10451699642540736,9.589693237788522,0.00020218522071306899,0.0027131781335233357,0.09165291440747582,-0.9957872971002232,-10.51746416634019,-0.31172257060703806
127.479,0.027308487704402383,-0.04049635003824129,0.34047578612647744,0.020541557033285973,0.18202005035208355,9.973164387491503,0.00026621852242981537,0.002688520992201108,0.07472395750297212,-0.9972005972509576,-8.570734807390128,-0.3095004306761642
127.579,-0.03324230420069684,-0.014342025656250661,0.37208588098527196,0.08596741391699761,0.2555913348726971,9.659380523108634,0.00019489052182422795,0.0027130991011520456,0.057896667536787814,-0.998318875409599,-6.638194383646412,-0.3116701293444624
127.679,-0.016951617853862032,0.05880015033359163,0.3388877776382416,0.1254821775126611,0.18041216354300038,9.829633841059412,0.0001321795311861785,0.0027030610287804577,0.04081303173997302,-0.999163136044279,-4.678138674627841,-0.3101084556313536
127.779,0.09789823812066686,-0.017918097166642492,0.28143169137871166,-0.002079078274482532,0.07118149094450615,9.728873981000607,7.580614078422671e-05,0.002716519806821259,0.023888385335916952,-0.9997109381314234,-2.7376744571725338,-0.31140930313096815
127.879,0.08290471657013153,0.06699552890995393,0.3351209617588915,0.16878844000668902,0.12587059294974856,9.84373463370586,-6.261838868658126e-05,0.0026841233590508915,0.006759779137573293,-0.9999735481235202,-0.7746471576055656,-0.3075227157661609
127.979,0.04885674519557522,0.06496046614675113,0.3098611452877425,0.13427040874286314,0.2759790115284746,9.690537656849727,-0.00010262204326481778,0.0026366511098265466,-0.0099011546263208,-0.9999475009602788,1.1345881084321283,-0.3022399348563224
128.079,0.057675584573666006,-0.024092688589314074,0.35029763974712974,-0.020362470954102763,0.05998111481063765,9.910758560367663,-0.00015139356673915394,0.0026950691806533005,-0.026984667068166237,-0.999632203075371,3.092577432876884,-0.3091882336606188
128.179,0.0753543907599001,-0.037948725712465804,0.34189290772041675,0.08386032529412416,0.2642528077738979,9.760492769627676,-0.0001470303795702583,0.0027348174679936933,-0.04395288952167693,-0.999029850734291,5.038263753260455,-0.3138250719390559
128.279,-0.06312081049136885,-0.014867521129742482,0.3414313991214602,0.10620137301871588,0.3456715039450615,9.840735659740195,-9.465729869684463e-05,0.0026462198627922743,-0.060893814148921754,-0.998140737550988,6.98228145654045,-0.30333259491068987
128.379,0.0832351902435029,0.0867633334496959,0.34436480761802973,0.08079783776374391,-0.11621638149424265,9.770151629859324,-0.0004256337797861109,0.0025967775879326706,-0.07788419860326772,-0.9969589395707185,8.933883691626761,-0.300463971606101
128.479,0.03264758913105723,0.02280493878397396,0.3005535072401756,0.08223392878710864,0.36454918969932826,9.772092820850355,-0.00028639709875598736,0.0026892169083091357,-0.09485915984260128,-0.9954870294901274,10.886457949151586,-0.30988549822247863
128.579,-0.1314054756110429,-0.016506362769366997,0.3629942203862472,0.05292059552580748,0.3467096034808676,9.816873111609748,-9.457134821158297e-05,0.0026509079985739545,-0.11161994914619519,-0.9937474280196371,12.817520419596871,-0.3030833736938161
128.679,-0.10741829458564571,-0.02499526763097654,0.38387469628451726,0.04703681196462875,0.043029292775986425,9.94658264785863,-0.0003920607981741644,0.002646650596455978,-0.1285182984211455,-0.9917035285305202,14.767995907875628,-0.3065430182946818
128.779,-0.08219974734163875,-0.0513074984882306,0.35445770574221225,0.04840536128866767,0.22824831029787845,9.783485043885287,-0.0004187838361936929,0.002670729377132681,-0.145784194156758,-0.9893127213165498,16.765439502290523,-0.3097698360852538
128.879,0.08727585711993256,-0.03784666887200343,0.31251197553983406,0.0966770431509498,0.04603697661750601,9.853799585031725,-0.00024428514050471264,0.002648449811307368,-0.16253806906584514,-0.9866986886292661,18.708615643579094,-0.3040045350139993
128.979,-0.07710937363767012,-0.012910411588393218,0.3772179845093243,0.08149822265012535,0.30263197947973774,9.629339870734006,-0.0004038659226483366,0.0026689453651299786,-0.17898446832689943,-0.983848196481902,20.621327899717702,-0.30918359996207756
129.079,0.016163972377948376,-0.00721785827143029,0.34516338784628114,0.0907337779196,0.028123751851074696,9.86540858451749,-0.0005449213106022317,0.002670326588296341,-0.19537155028587572,-0.9807255119326563,22.532939483800284,-0.3123001603586449
129.179,0.10940897292599343,0.01680823002505583,0.2997113454238867,0.043849485244625404,0.130283405282226,9.78033783210485,-0.0005020031598944582,0.002614940127233058,-0.21175106123543508,-0.9773200080560231,24.450084606019924,-0.30503649439839475
129.279,0.001356874809910225,-0.04576749437169793,0.32781354223251136,0.08540805385912763,0.3059655269278039,9.830399203379436,-0.0005488008953686941,0.0026551119659947303,-0.22849500174589993,-0.9735413105642547,26.417086120468177,-0.31057437602046944
129.379,0.07899615184081847,0.08613689475043253,0.3343856144229199,0.18735166039896733,-0.0013219648773441367,9.684338120464624,-0.0008010668816174323,0.002526453343126513,-0.244794157084459,-0.9695714496532297,28.339392411427173,-0.3031732683461408
129.479,0.1455699979527814,0.03677665040284425,0.26705343747070676,0.006291543553522898,0.19356449673071896,9.817439749900881,-0.0008073404872452229,0.0025074728348061627,-0.26128856901102543,-0.965257139049223,30.293140217858724,-0.30152672204653835
129.579,0.08031616091092662,0.0232033318769401,0.32620573370570904,0.07840909686785413,0.22973756194090508,9.849868611481941,-0.0007419420826595372,0.002593708204320575,-0.27765877964163443,-0.9606759725774424,32.24116867407225,-0.3091374273222802
129.679,-0.07875357238760221,0.011899056787850196,0.3828762369073465,0.07071763414554161,0.2979769982920013,9.864541813441578,-0.0008097341322655082,0.002590965745298374,-0.2940820722402338,-0.9557763158888337,34.205131333020894,-0.31106168856275446
129.779,-0.06279214704585578,-0.05679069982205055,0.3638819579759501,0.026284916409380712,0.10004421692308833,9.957467084302012,-0.0009885473210171003,0.002468699785759869,-0.3104277737261127,-0.9505932492896271,36.17010361182553,-0.30408180567100473
129.879,0.10169787123115961,0.0226568522913379,0.33377751129058064,0.1516045726383072,0.09130014458994087,9.492134370730124,-0.0009381253858879676,0.002512841534797728,-0.3266114823741014,-0.9451548789111621,38.12659174047285,-0.3072703685735236
129.979,-0.044352924515814365,-0.05886867338428631,0.3631893470788801,0.015092467646204609,0.34903003030736535,9.765787261824494,-0.0008443132819538574,0.0025817923311385552,-0.3430004097335492,-0.9393313262135241,40.11974522315221,-0.31108990484149446
130.079,-0.06179852413778414,0.017704650648854858,0.3628466589524382,0.07786898907619896,0.11054663785298294,9.993251120009289,-0.0010336242900516525,0.0024776737293526435,-0.358735984329433,-0.9334352073394869,42.045312879443905,-0.3075132097921751
130.179,-0.02368883891382282,-0.0015315266047479757,0.31429539973562765,0.06946605342601217,0.21728330076559235,9.870796009213793,-0.0010545071237721675,0.0024993317591729476,-0.3746717809886738,-0.9271535460139589,44.00821426626831,-0.3108148981516537
130.279,-0.10606138770481616,0.04235931390499594,0.3867180690739209,0.20348434264486795,0.23824035257668205,9.71650275601003,-0.000879583035703427,0.002507519029521353,-0.3902556035472364,-0.9207027221541068,45.941032235183734,-0.30389157067507927
130.379,0.01727874171534362,-0.034527489928414604,0.3220796603973164,-0.05104655794981626,0.1207805083677822,9.706375303672857,-0.001089124777262964,0.002508441348402003,-0.40560351536655176,-0.9140450261620138,47.858101101914045,-0.31336148248179313
130.479,0.011341885553577192,-0.013380595238761006,0.3432317730782539,0.12721845238120183,0.09814988144669867,9.781472943016608,-0.0011523179513170446,0.0024770837671781827,-0.42131788836003015,-0.9069089111742118,49.83583679243712,-0.3130635780089532
130.579,-0.06994357302912585,0.09432488145082131,0.3353287220012752,0.1886415963427508,0.34715038927682296,9.813127360007309,-0.0009736782377990409,0.002434254187768031,-0.436482005883072,-0.8997091668408901,51.75951447385768,-0.2996713379433754
130.679,0.00036140200053468366,0.03381218381411594,0.32258145545290906,0.021772732849640555,0.10266979552096275,9.843501144089748,-0.0011899457085816755,0.002431102482021854,-0.45188975004700316,-0.8920696876210904,53.73021041942238,-0.31013636122709926
130.779,-0.06076717060808898,0.010017194018358676,0.3636924828748014,-0.03655571199778751,0.12707990719761814,9.899599039047505,-0.0012792422710396804,0.0023905929301791967,-0.46709490696609457,-0.8842030289989905,55.691988607319985,-0.3106932796806503
130.879,0.17572342559802656,0.02199695015426535,0.28611700641940063,0.13328575704359139,-0.015481615046960806,9.795404793405185,-0.0013344504401268482,0.002182685758725316,-0.4824014478348934,-0.8759465156342024,57.68489688324369,-0.2928579733195459
130.979,0.0023327190650910268,0.08879628650048578,0.33787112017546,0.11562377695544052,0.4012618143361368,9.653418573613074,-0.0012914250684552203,0.00230098146838812,-0.49756729412458595,-0.8674213656136862,59.6786034139539,-0.30235024217399586
131.079,-0.047328473733703955,0.00576994704368259,0.37760415864256774,0.026523344744771193,0.1398531741028604,9.844070731903937,-0.0013812350210430943,0.002343710728875003,-0.5124090770625146,-0.8587371757143032,61.64911924947063,-0.3117351425738578
131.179,-0.02022789530486758,-0.06278709925199286,0.33922889375773235,-0.012794330436120521,0.2775565434552989,9.852873872433882,-0.0013985609346163046,0.002282054377383007,-0.5269933258509578,-0.8498652074086085,63.60531913401354,-0.3067024372764049
131.279,0.02144757057641794,0.0676732971130848,0.3364337349640006,0.3173707568657236,0.07439277870637487,9.600974971484924,-0.0014153468686831977,0.002152795588664269,-0.5412446184485796,-0.8408612401965296,65.53704878455915,-0.2952179528135574
131.379,0.011787593955006542,0.05936297028252895,0.33887572378084785,-0.07207153151713905,0.18821333402757742,9.953354457087045,-0.0015122118591739395,0.0022375642719012034,-0.5554034821359116,-0.831576622177852,67.47729478222854,-0.30946676670810513
131.479,0.01211962096937061,-0.07814460399298875,0.3404912383282114,-0.037308851191325015,0.17758104849645875,9.808404948475676,-0.0015264329315742243,0.002267426702051928,-0.5696510333783978,-0.8218821259460385,69.45209798448143,-0.31319078421861196
131.579,0.0357232836147756,-0.024506967724037057,0.3482802251580277,0.11471802064355507,0.17660007491699695,9.90870058884888,-0.0015014145509983869,0.0022173262067982824,-0.5834722496971144,-0.8121286616369521,71.39058725090536,-0.30673876279945467
131.679,-0.07283660155070394,0.03066268815664542,0.36801130207516874,0.11605152129728878,0.22379551594951386,9.728323099653355,-0.0015858808313812603,0.002193351226206676,-0.5970291720499746,-0.8022149599164237,73.31516945423084,-0.3101271003987636
131.779,0.030746561454211323,0.004271714802146586,0.33588951823912694,0.13704981448587733,0.08818439444298778,9.820360957856623,-0.0016644796514534886,0.002167147335053854,-0.6108966696972988,-0.7917056220165848,75.30906463503558,-0.3131307636541183
131.879,0.0768807976892936,-0.02212260349285709,0.3145368853518641,0.014992810123165196,0.15979604662406915,9.694183735487236,-0.001637110738636564,0.00214863584450893,-0.6242123845280806,-0.7812500254298907,77.24915707892004,-0.3094590585505845
131.979,-0.013439433265918378,-0.00979739066972998,0.35572024789905776,0.12053138051768647,0.23649103507604702,9.76527995797601,-0.0017301921863498435,0.002061402999093929,-0.6374007096937486,-0.7705278011432029,79.19687517165355,-0.30838961058717906
132.079,0.02095681759305621,0.04826623406243345,0.3728439567629779,0.13817510068642447,0.08536940049463601,9.861496098538082,-0.001790732850555442,0.0020162543598292097,-0.6506235269892158,-0.7593956505816503,81.17760142320073,-0.3089664346840453
132.179,0.052096371365739066,-0.04474145139191928,0.3213499669736669,-0.05491793672793338,0.21898189445600275,9.828258863714263,-0.001765076683778148,0.002063428843371909,-0.6634168068250947,-0.748245125067784,83.12235249008111,-0.31110983194969716
132.279,-0.11805890322108727,-0.04653496895474871,0.3690378876311332,0.09245281120950363,0.34495675494809747,9.800695403778986,-0.0018319679485642676,0.0019487270885278102,-0.6760867336393946,-0.7368171923570893,85.07756273060228,-0.30646797425294486
132.379,0.05873224789511923,0.014649315659196117,0.3329267029997925,0.19453249729801309,-0.031549591517508684,9.641201071441209,-0.0019487523617995892,0.0018207605969963636,-0.6885411935540195,-0.7251923275754418,87.0298229584515,-0.30506684834078757
132.479,0.07985906013812641,-0.005659437924720186,0.32390634076822733,0.016552289586405124,0.16697950338452766,9.88499517806008,-0.0019000699746372785,0.0019322576196712689,-0.7006084702414233,-0.7135407679597257,88.95209664168529,-0.3105388818527254
132.579,-0.10150451847588977,0.044364116877427986,0.3529222109465988,0.04709095317086597,0.4300012754167049,9.904948787890344,-0.0018319168461242929,0.0019362558714414073,-0.7123877736587249,-0.7017809878697446,90.8594913404623,-0.3052576264361683
132.679,-0.12391440944030549,-0.04269907928525484,0.3610527120285587,0.032553687260612356,0.10779337097523022,9.840198105001933,-0.0019845693824579198,0.0017155490776961753,-0.7242215798263502,-0.6895623406839688,92.80863809433731,-0.3002594497701374
132.779,0.09453797750563177,0.041205588326478144,0.2925061587064741,0.17242299597295757,-0.0064260652139034105,9.641782528280821,-0.002034976509070182,0.0017350044925889645,-0.7355065258673894,-0.6775123607997876,94.70048183795467,-0.30621594297915516
132.879,-0.03715817516929075,-0.0019581679609619977,0.35094802086777044,0.0708591998515517,0.35198609565171246,9.787664570689907,-0.001915700116245794,0.0018834111613278191,-0.7469265563729951,-0.6649011221529417,96.65019239379318,-0.3074700502213577
132.979,-0.09569917331457803,-0.050172673714961036,0.34785450509252247,-0.015127194192421367,0.295652138684706,9.824172688939175,-0.001973182880928227,0.0018265849841453228,-0.7578914530014788,-0.6523751341091424,98.55783914182065,-0.30791783226454533
133.079,-0.04029040494988305,-0.030642614406954063,0.3347847588470084,0.12358021983439785,0.015615980029304689,9.841997471104824,-0.002099643984563165,0.0017544486187737122,-0.7686310397930137,-0.6396865154682353,100.46274926935806,-0.31354110586918366
133.179,0.04639300032861556,-0.011225733798153694,0.32604696314336484,0.03148438556620797,0.1206179996248112,9.896457373786811,-0.0020686379177050286,0.0017343359723742732,-0.7792095293487379,-0.6267577061257555,102.3770511062663,-0.3092738997135944
133.279,-0.11554211887848465,0.023849826435290607,0.3575791289591461,0.20854180179337065,0.36427536224558055,9.78248697490602,-0.0019589231510689616,0.0017888908742890116,-0.7897380836346042,-0.6134384416929468,104.32266654189583,-0.30302855129579426
133.379,0.0819842760310715,0.04529559795630323,0.30775587678014577,0.0222066749355805,-0.06780625850676336,9.76292729371254,-0.0022034878491720786,0.001549943695166283,-0.8000759246939855,-0.5998927046071689,106.27523584118906,-0.3085687709113515
133.479,0.11626796622020137,0.021343472392057264,0.3273699977271385,0.022540317250599514,0.10546752471020829,9.67696334836445,-0.002213263873341482,0.001465756565444304,-0.8101087515183351,-0.5862736253099933,108.21364062275876,-0.30393477732622015
133.579,0.07803818696915243,-0.025116164382667835,0.31629379639195776,0.08933266078215217,0.2809012610938969,10.074098465283468,-0.002056159105536576,0.0016811473182518715,-0.8198815563988322,-0.5725270119657723,110.14651752614404,-0.30347529651020044
133.679,-0.06457900680113127,-0.028246728729701916,0.367844646196283,0.045793200745536486,0.22007929266099135,9.614663779973396,-0.0022681782237092335,0.0015015471212706701,-0.8293543420595251,-0.5587163645632732,112.06556314218481,-0.31169772935097884
133.779,0.15211227356031695,0.06104887073127535,0.256718188034871,0.12834043394006853,0.04730610757098157,9.66672231742802,-0.0023431890320267266,0.001144791002996904,-0.8386886438211139,-0.5446049555817686,114.00430960166926,-0.2966404701870173
133.879,0.12873028293861277,-0.01340057466123673,0.3194328252958574,0.04618012148739356,0.1917740143953007,9.888832905541625,-0.002238009298007745,0.001446788359030188,-0.8478999223442858,-0.530149620207711,115.96862863322737,-0.30534465850321646
133.979,-0.020298165212487868,0.00146232417615276,0.34351761831539956,0.03777014363743737,0.3179570989909747,9.815230051719407,-0.0023270184032749453,0.0014126577960030127,-0.8568580348615861,-0.5155452428996343,117.93193439774093,-0.3119442212182841
134.079,-0.06240632007619773,-0.03557995716482503,0.30486765306856134,0.08038609519454211,0.20325686300796586,9.865940231356882,-0.002406371998854152,0.001250643020639339,-0.8653761801482994,-0.5011154678292977,119.85206513474013,-0.31044535848548716
134.179,-0.04610378406356505,-0.03802772264320163,0.34258632636967656,0.07285677841890695,0.027865270807976322,9.951566473216204,-0.0023528469556570587,0.0012582727710776023,-0.8736662352698216,-0.48651843768791925,121.77575038540274,-0.30570604366545706
134.279,0.014719962115712585,-0.051913322931029085,0.33384811735224257,0.0729206666636895,0.26508895931755067,9.499807263033839,-0.002408679032904795,0.001290373292569119,-0.8817124196566799,-0.47177933636949904,123.70005306103694,-0.31312685248997085
134.379,-0.058490614398339066,-0.05341608483029521,0.3418208825046765,0.07453492414171872,0.28773946292264585,9.901169033338894,-0.002411033291424697,0.0012635059596216964,-0.8897122425759552,-0.4565136535544389,125.6750540406017,-0.31191215067513917
134.479,0.02241205767975786,-0.056784879921594554,0.3389647596911042,0.07265340317847403,0.010167218777133565,9.831105795764865,-0.002450069947578172,0.001221232513875055,-0.8973217399020444,-0.44136855443899325,127.61732745384907,-0.31369763970671855
134.579,-0.0035231239501658145,-0.013731994438412179,0.31561500459332165,0.12213460845957193,0.293744185140862,9.710188372540562,-0.002441083645779306,0.0011921389922040222,-0.90468887047392,-0.42606415896655814,129.56373320722514,-0.3112721868614677
134.679,-0.037268209442316604,0.051457402443115516,0.33989217062473853,0.11484287308884228,0.18685887119733385,9.887066744881546,-0.0024131397642820837,0.0011793692124657828,-0.9117545691021706,-0.4107266628380169,131.49885808527918,-0.307632784192685
134.779,0.08619392141895374,0.053944572231425486,0.3084883324166334,0.10607990138054489,-0.01325159465322474,9.792594940219118,-0.0025054458681826137,0.0009752817882122991,-0.9185424889260407,-0.39531312602036084,133.42878391540515,-0.30789756203379953
134.879,0.019678137710896517,0.08771884448500662,0.3175324022750455,0.09387905544845529,0.2892272596467221,9.735356745893105,-0.0024618079741790208,0.0009198668543497064,-0.9252246176343332,-0.37941072766840755,135.40543964706183,-0.301002779137814
134.979,-0.045021479221627116,0.04229641924023047,0.3903997423441725,0.0654655645777574,0.19398003170652472,9.757973610036744,-0.0024201498680588534,0.0010728780199591825,-0.9316590923930492,-0.36332399778810387,137.3909298420418,-0.30304531802705786
135.079,-0.06394128992443907,0.00328785308303306,0.3955113086882741,-0.03058458659899549,0.14882965627425868,9.911233024105636,-0.002539752479434953,0.0009696591684251781,-0.93768711432211,-0.3474701210934753,139.33454288031425,-0.3115096079079626
135.179,0.011322668772527498,-0.09798713094533712,0.3541049891850847,0.010144816833476684,0.19523064083912253,9.8189584811105,-0.002559202771215415,0.0007989158585168629,-0.9436246791958031,-0.33100646070317796,141.3400770348482,-0.3070350222308501
135.279,-0.008320700797216432,0.11210881290294089,0.34294223715121824,0.27627620525477536,0.2217938909548256,9.67189586176734,-0.0023783341621399583,0.000896713087952936,-0.9490890597729867,-0.31499761277107985,143.278567440084,-0.2910309712684619
135.379,-0.009883265242069294,-0.09264143131009048,-0.4285683746571119,-0.9070827774414573,1.3164848956870039,9.765535704324362,-0.0025865398107467337,0.0008774408189109508,-0.9490182061024981,-0.31520942942020813,143.2529488473138,-0.31297986567079117
135.479,-0.13518226479046247,-0.008365428113986863,-0.42094798910738107,1.2980155186339715,0.017954059776908775,9.881558718986378,-0.0024268373091453225,0.0010767410030733428,-0.9421643235221117,-0.3351407742600243,140.8377201964365,-0.30336416023886786
135.579,-0.16374382273480653,0.02083130926974147,-0.4006114455422929,1.0696018970963146,-0.2715567974557558,9.857034952952127,-0.0023925408752424634,0.0010247382438339334,-0.9347209616013814,-0.3553729725270067,138.36727503512654,-0.29799925772391306
135.679,0.0768599496820722,0.060272154680061724,-0.44449550789370906,1.194333710401389,-0.5329795156344468,9.687748499459834,-0.00253055972051396,0.0008543149075407288,-0.9270949056754929,-0.37481715847075164,135.97376181381958,-0.30553473450176055
135.779,0.06923745968800984,-0.1675164900165378,-0.44377218767698284,0.8689367642676987,-0.2927695489563851,9.98322603714719,-0.0024511183444826485,0.0011085759582963265,-0.9190993228964321,-0.394016748031763,133.59050809913845,-0.30820908697939114
135.879,-0.003807106035053228,0.034843615734077266,0.5041832025932401,1.8110225861500127,-1.232638996351739,9.674018538418396,-0.002446217890039014,0.001097768214592402,-0.9265082457039758,-0.3762649087617958,135.79483537322554,-0.3070487159242569
135.979,0.04604501765689065,0.055317425326238144,0.5298331030330075,0.24772352744411397,0.40366270711884433,9.73196482104595,-0.002488001935567056,0.0008960539837929544,-0.9362577670602922,-0.3513038578679463,138.86566774693165,-0.3030042245891012
136.079,0.033763949844668975,0.08822706117561782,0.5259929054931173,0.022652461473509473,0.6029266956008974,9.804005502245893,-0.0024857473210560116,0.0009061587849726524,-0.9448345618615284,-0.3275372507798861,141.76114444353843,-0.3031443010002893
136.179,0.18209456761220322,0.01471632277721037,0.48300185531570133,0.08016426675203667,0.4096854944692533,10.029503249894384,-0.0025162798313152035,0.0009394661223343521,-0.9529381722291106,-0.3031528090713621,144.7057753413302,-0.307411769464213
